21 151
0	0.06	 0.09	0.15	0.21	0.27	0.33	0.39	0.45	0.52	0.55	0.61	0.64	0.7	0.73	0.79	0.82	0.88	0.91	0.97	1
[n]
-118.000000	-113.685400	-111.285200	-109.594100	-108.165700	-106.900500	-105.714100	-104.565700	-103.407200	-102.194000	-100.904300	-99.525300	-98.050200	-96.508000	-94.930500	-93.333700	-91.727600	-90.102000	-88.466900	-86.818800	-85.178400	-83.539400	-81.895300	-80.246100	-78.595000	-76.946200	-75.294600	-73.647500	-71.993800	-70.340200	-68.678800	-67.022000	-65.361400	-63.710800	-62.055400	-60.465200	-58.773500	-57.163900	-55.508400	-53.870900	-52.198500	-50.500100	-48.783600	-47.040500	-45.310200	-43.619300	-42.000700	-40.493900	-39.040300	-37.996500	-35.804600	-34.283700	-32.892700	-31.166900	-29.396400	-27.720700	-26.101100	-24.480700	-22.835500	-21.179200	-19.518900	-17.864600	-16.217200	-14.573400	-12.923000	-11.272800	-9.624600	-7.976200	-6.324700	-4.674800	-3.019700	-1.364400	0.291700	1.947800	3.600700	5.252700	6.899800	8.544700	10.186600	11.828400	13.470600	15.113000	16.757900	18.404900	20.053200	21.704600	23.357000	25.010700	26.665500	28.319500	29.973000	31.625900	33.276800	34.926900	36.575600	38.223200	39.870100	41.516200	43.162700	44.812100	46.463400	48.117400	49.772500	51.423200	53.069700	54.705900	56.335000	57.959000	59.586700	61.233100	62.890000	64.547600	66.196600	67.846000	69.500700	71.153700	72.797100	74.453200	76.099600	77.751900	79.396200	81.042700	82.693900	84.339500	85.991000	87.643700	89.294500	90.955000	92.617400	94.272800	95.947300	97.613800	99.280700	100.886400	102.423700	103.912600	105.367600	106.818800	108.242100	109.678300	111.153400	112.673700	114.261600	115.945500	117.776400	119.764600	121.833300	123.877900	125.868000	127.708100	129.000000
-118.000000	-117.425500	-116.020700	-114.360500	-112.538000	-110.627500	-108.662800	-106.694700	-104.754900	-102.877000	-101.108700	-99.462700	-97.899900	-96.397000	-94.933000	-93.476100	-91.999700	-90.461500	-88.863300	-87.220800	-85.577300	-83.945300	-82.335200	-80.763300	-79.227000	-77.730800	-76.303000	-74.946400	-73.664600	-72.434100	-71.265500	-70.194100	-69.212200	-68.329600	-67.555700	-66.932200	-66.394400	-65.933900	-65.423600	-64.808700	-64.179100	-63.564600	-62.725700	-60.864400	-58.632400	-57.113800	-55.752200	-54.109300	-52.142700	-50.238200	-47.937500	-46.038700	-44.288100	-42.428800	-40.584500	-38.795300	-37.006200	-35.169600	-33.284000	-31.370600	-29.446000	-27.525500	-25.612200	-23.704900	-21.792600	-19.881600	-17.972300	-16.062000	-14.149000	-12.238200	-10.320400	-8.400600	-6.477000	-4.548700	-2.619400	-0.687200	1.242100	3.171000	5.097600	7.024200	8.950700	10.875900	12.801500	14.726300	16.648300	18.568800	20.485600	22.400300	24.314100	26.225900	28.137400	30.049700	31.961600	33.874000	35.786100	37.697600	39.608800	41.519100	43.429400	45.341700	47.254700	49.168900	51.082300	52.988000	54.886600	56.772200	58.650200	60.525600	62.412100	64.319500	66.234700	68.180600	70.175600	72.174200	73.885800	75.563100	77.183800	78.798500	79.858100	81.036200	81.708200	82.335900	83.918000	84.872200	85.611500	86.092000	87.471000	88.888100	90.476100	92.194900	93.979800	95.733900	97.475300	99.170100	100.814000	102.414000	103.976100	105.530100	107.062500	108.653100	110.327100	112.065700	113.866100	115.695300	117.492600	119.221400	120.850700	122.388900	124.000800	125.815100	129.000000
-118.000000	-118.431100	-117.284800	-115.630700	-113.706500	-111.627800	-109.458600	-107.272300	-105.119500	-103.055200	-101.149100	-99.425300	-97.838000	-96.348900	-94.920500	-93.506600	-92.071200	-90.564400	-88.985500	-87.355300	-85.722500	-84.104600	-82.517600	-80.983000	-79.500200	-78.075900	-76.745300	-75.512300	-74.385400	-73.338900	-72.388800	-71.574300	-70.888900	-70.338800	-69.938500	-69.713000	-69.637600	-69.628500	-69.561300	-69.345300	-69.127600	-68.957100	-68.543800	-66.830000	-64.567400	-63.108600	-61.786600	-60.079800	-57.965600	-55.779900	-53.474100	-51.416600	-49.487000	-47.532700	-45.611300	-43.725300	-41.823000	-39.866300	-37.860400	-35.825400	-33.776900	-31.730300	-29.690300	-27.657000	-25.619200	-23.583300	-21.549200	-19.513900	-17.475400	-15.439100	-13.394900	-11.348200	-9.296900	-7.240100	-5.181700	-3.119500	-1.060300	0.998800	3.055500	5.112400	7.168900	9.223900	11.279000	13.332800	15.383200	17.431300	19.474900	21.515900	23.555500	25.592800	27.629800	29.667700	31.705200	33.743300	35.781000	37.818000	39.854500	41.889800	43.924800	45.961400	47.998000	50.035100	52.070400	54.096400	56.114100	58.117000	60.111400	62.102600	64.105700	66.128200	68.150700	70.197000	72.290200	74.380500	76.098300	77.768400	79.338900	80.879600	81.688400	82.641200	82.919700	83.132200	84.572500	85.198600	85.572500	85.594400	86.811800	88.100400	89.624400	91.334700	93.136400	94.910200	96.673300	98.397500	100.078200	101.721000	103.332400	104.943900	106.543800	108.218500	109.988200	111.820600	113.700700	115.577600	117.365500	119.022700	120.538400	121.953400	123.469700	125.269300	129.000000
-118.000000	-116.984000	-115.398300	-113.719600	-111.972800	-110.175800	-108.336300	-106.479500	-104.612100	-102.758500	-100.982500	-99.326100	-97.767200	-96.281800	-94.840700	-93.404900	-91.956400	-90.462900	-88.926200	-87.358200	-85.795500	-84.249000	-82.732300	-81.267000	-79.875800	-78.577500	-77.382400	-76.309900	-75.369200	-74.580200	-73.955100	-73.511300	-73.247000	-73.156600	-73.235200	-73.464300	-73.854500	-74.256100	-74.557500	-74.689600	-74.857600	-75.183600	-75.567800	-74.975800	-73.532500	-72.088800	-70.489600	-68.672400	-66.697700	-64.546700	-62.427800	-60.174000	-57.889000	-55.632300	-53.396400	-51.156100	-48.913800	-46.668400	-44.421800	-42.171400	-39.907800	-37.637100	-35.368800	-33.106700	-30.839900	-28.576000	-26.315400	-24.053200	-21.785300	-19.517800	-17.240900	-14.961700	-12.679500	-10.395500	-8.114700	-5.833800	-3.559200	-1.286900	0.981500	3.249700	5.518100	7.786300	10.056900	12.329500	14.602500	16.878000	19.153700	21.429900	23.706700	25.981500	28.255200	30.528000	32.797300	35.064800	37.329600	39.591700	41.851400	44.108300	46.363700	48.619800	50.874900	53.129000	55.379400	57.617800	59.845200	62.053600	64.248100	66.431400	68.616100	70.807200	72.957300	75.029300	77.019600	78.962000	80.603600	82.180800	83.496500	84.675200	85.152700	85.702300	85.564300	85.323500	86.051600	86.091600	86.097000	85.712500	86.503200	87.508100	88.796500	90.329200	92.011000	93.727900	95.471700	97.194300	98.882800	100.560900	102.253300	104.004000	105.790300	107.661600	109.607100	111.566000	113.499200	115.372100	117.170800	118.916900	120.629200	122.318100	124.017900	125.780400	129.000000
-118.000000	-114.025100	-111.607300	-109.912000	-108.526300	-107.297200	-106.135900	-104.987200	-103.789000	-102.508500	-101.159500	-99.771400	-98.359200	-96.934500	-95.497700	-94.036400	-92.562200	-91.076200	-89.596600	-88.119600	-86.660500	-85.218400	-83.801800	-82.426800	-81.111800	-79.874600	-78.725800	-77.684900	-76.761000	-75.973900	-75.336400	-74.866700	-74.574000	-74.443600	-74.448000	-74.554000	-74.729900	-74.873800	-74.913200	-74.885900	-74.908100	-75.110700	-75.786700	-76.600900	-76.669000	-75.661600	-74.226200	-72.924500	-71.852000	-70.532700	-68.889300	-66.843700	-64.568500	-62.223800	-59.847900	-57.428400	-54.982300	-52.522800	-50.064700	-47.611300	-45.151000	-42.688400	-40.231900	-37.783000	-35.327700	-32.872700	-30.416200	-27.951400	-25.472200	-22.988300	-20.493300	-17.997900	-15.505200	-13.019400	-10.547100	-8.083100	-5.632400	-3.188900	-0.752400	1.683100	4.119500	6.558500	9.004600	11.459200	13.922300	16.398200	18.884200	21.378600	23.878900	26.379500	28.879100	31.375300	33.863700	36.346500	38.822800	41.293000	43.757900	46.217400	48.673600	51.129600	53.583400	56.034800	58.480500	60.911400	63.327200	65.717500	68.083500	70.423300	72.744000	75.060900	77.308500	79.354700	81.101600	82.663800	84.143000	85.507600	86.545900	87.353900	87.847900	88.180200	88.219800	88.125200	87.845500	87.530800	87.540100	87.369300	87.639300	88.206200	89.002700	90.065000	91.377800	92.865400	94.477700	96.122500	97.767600	99.450400	101.209900	103.105900	105.097800	107.161400	109.247300	111.276900	113.198000	115.034100	116.927900	118.991400	121.253800	123.625300	125.822900	127.655600	129.000000
-118.000000	-120.561800	-119.805000	-118.094100	-115.988000	-113.659500	-111.235000	-108.833500	-106.559700	-104.512700	-102.737400	-101.209600	-99.879700	-98.688800	-97.572600	-96.454600	-95.268900	-93.961100	-92.567600	-91.122800	-89.680100	-88.269200	-86.923100	-85.670500	-84.505100	-83.410500	-82.364000	-81.351200	-80.347500	-79.363400	-78.425000	-77.570900	-76.827600	-76.230700	-75.808700	-75.586200	-75.519300	-75.569600	-75.691500	-75.832300	-75.939600	-75.922200	-75.687400	-75.227500	-75.063100	-75.871100	-77.036600	-77.495000	-77.244300	-76.398600	-75.250800	-74.059000	-72.844200	-71.571400	-70.261500	-68.786100	-66.946100	-64.688000	-62.147900	-59.468100	-56.768800	-54.106400	-51.477100	-48.868900	-46.256300	-43.635700	-40.996600	-38.333400	-35.647700	-32.953600	-30.246200	-27.539400	-24.834300	-22.131700	-19.436800	-16.745400	-14.064200	-11.387800	-8.717200	-6.046900	-3.375600	-0.702700	1.976000	4.660500	7.350300	10.048700	12.753200	15.465000	18.184100	20.906500	23.632000	26.359000	29.083700	31.807100	34.527100	37.242800	39.953700	42.658100	45.356700	48.051600	50.740200	53.422100	56.093100	58.743100	61.370900	63.965400	66.529900	69.066400	71.588200	74.129700	76.696300	79.250100	81.595900	83.537200	85.045500	86.245500	87.403400	88.387500	89.067400	89.535100	89.854300	89.986800	89.818900	89.586900	89.164800	88.750300	88.819000	88.613400	88.719500	89.247200	90.148500	91.337700	92.760100	94.330200	96.007200	97.767700	99.601200	101.546100	103.566200	105.680500	107.862300	110.054500	112.224600	114.347500	116.414400	118.392200	120.315400	122.222200	124.190600	126.458400	129.000000
-118.000000	-115.631800	-112.828500	-110.474400	-108.568700	-106.984800	-105.576900	-104.264400	-102.963000	-101.595400	-100.153600	-98.681700	-97.210300	-95.764400	-94.344900	-92.933900	-91.537100	-90.155900	-88.809300	-87.496300	-86.219800	-84.950300	-83.663200	-82.342900	-81.402400	-80.919300	-80.056400	-79.033500	-77.890400	-77.322300	-77.159100	-77.068400	-77.042400	-77.026700	-76.941200	-76.800100	-76.673600	-76.645100	-76.581700	-76.319900	-76.104100	-76.219100	-76.332900	-76.850100	-77.604000	-77.719800	-77.807200	-77.010400	-75.772400	-74.805000	-73.927500	-72.819100	-71.642400	-70.503500	-69.194100	-67.491300	-65.417700	-63.084300	-60.590800	-57.981500	-55.276900	-52.514200	-49.734900	-46.964200	-44.192400	-41.431100	-38.683200	-35.945000	-33.213600	-30.496400	-27.778100	-25.061300	-22.340100	-19.610000	-16.871600	-14.116300	-11.351100	-8.573400	-5.786900	-2.988400	-0.179500	2.637900	5.465300	8.300200	11.139200	13.983000	16.826500	19.668100	22.508200	25.343800	28.177200	31.008800	33.836800	36.664400	39.491600	42.318900	45.143000	47.959000	50.764400	53.558000	56.333600	59.087300	61.813800	64.507700	67.175000	69.810900	72.425500	75.026900	77.618400	80.178400	82.641900	84.937500	86.966300	88.672400	90.244000	91.510000	91.858600	91.573800	91.764600	91.843800	91.875200	91.801500	91.492900	91.182200	90.801300	90.159700	90.210900	89.869100	89.859300	90.282400	91.041200	92.108000	93.402800	94.769100	96.182500	97.748300	99.558200	101.609800	103.772800	106.010100	108.268100	110.474800	112.609900	114.659900	116.634600	118.587200	120.585300	122.650100	124.831800	127.099600	129.000000
-118.000000	-116.668400	-114.753700	-112.811200	-110.868300	-108.956700	-107.100700	-105.350300	-103.717000	-102.174800	-100.710000	-99.318900	-97.973200	-96.639600	-95.284200	-93.894700	-92.502800	-91.123800	-89.778900	-88.468200	-87.208000	-85.992400	-84.817000	-83.683600	-82.583200	-81.455600	-80.232000	-78.990800	-78.779300	-78.405400	-77.872200	-77.705000	-77.752800	-77.661500	-77.368400	-77.238400	-77.170400	-77.070800	-76.953900	-76.859800	-76.839800	-76.897100	-76.669800	-76.714600	-76.912300	-77.318700	-77.946600	-78.231600	-77.588100	-76.490800	-75.458800	-74.556300	-73.595700	-72.511700	-71.496600	-70.516300	-69.256400	-67.570700	-65.541100	-63.258600	-60.772900	-58.125500	-55.362600	-52.524700	-49.636300	-46.733100	-43.829500	-40.932400	-38.049900	-35.202700	-32.382700	-29.586500	-26.800200	-24.011800	-21.213900	-18.389800	-15.534300	-12.639300	-9.711800	-6.751700	-3.763700	-0.752900	2.279000	5.326600	8.382700	11.445500	14.505800	17.558600	20.600200	23.628200	26.646000	29.655900	32.657400	35.655100	38.650500	41.646500	44.644700	47.640000	50.628100	53.606300	56.566300	59.502500	62.405100	65.258400	68.066700	70.831400	73.570000	76.297300	79.039900	81.807500	84.443500	86.749000	88.660500	90.261500	91.656300	92.850600	93.728200	94.520400	94.742000	94.182400	93.763300	93.514800	93.245800	92.919200	92.541400	92.021800	91.388900	91.526800	91.195400	91.008900	91.518800	92.400200	93.414500	94.531500	95.799400	97.330400	99.202200	101.354100	103.595600	105.842800	108.055800	110.200000	112.264900	114.249800	116.253300	118.407300	120.760700	123.238000	125.550600	127.497300	129.000000
-118.000000	-117.585200	-116.728300	-115.751500	-114.682200	-113.526400	-112.281500	-110.952300	-109.526200	-107.993000	-106.376100	-104.716600	-103.038600	-101.364400	-99.716000	-98.109300	-96.591300	-95.179800	-93.864900	-92.607500	-91.386900	-90.180200	-88.972800	-87.758400	-86.567400	-85.448500	-84.380400	-83.285400	-82.140400	-81.059800	-80.093800	-79.108700	-77.991000	-77.932600	-78.416200	-78.236700	-78.145200	-77.901700	-77.540700	-77.366800	-77.314000	-77.226100	-77.132100	-77.077400	-77.061200	-77.039500	-76.983500	-77.109200	-77.525500	-78.136000	-78.524000	-78.037200	-77.012100	-76.080900	-75.147000	-74.150300	-73.130000	-72.106600	-71.082500	-69.945300	-68.491100	-66.582800	-64.279700	-61.675300	-58.847100	-55.895000	-52.909500	-49.930100	-46.954200	-43.990700	-41.027400	-38.073000	-35.125000	-32.177500	-29.228700	-26.266500	-23.290700	-20.288400	-17.254000	-14.178600	-11.065600	-7.919500	-4.740800	-1.534200	1.693800	4.942200	8.202700	11.470900	14.741800	18.006800	21.263300	24.510800	27.746900	30.974800	34.194100	37.406100	40.612200	43.813000	47.011800	50.213500	53.414500	56.611100	59.794600	62.949200	66.070300	69.141300	72.161400	75.116700	78.001200	80.816400	83.523200	86.077400	88.400900	90.426300	92.084100	93.335100	94.348700	95.230100	95.816500	96.271300	96.448800	95.895400	95.397100	95.014700	94.547700	94.129600	93.673000	92.974500	92.770900	92.462700	91.971800	92.667200	93.185000	93.812900	94.870700	96.291000	98.000500	99.959000	102.050400	104.248400	106.516100	108.787900	111.027500	113.231500	115.429200	117.593300	119.661900	121.681300	123.762700	126.168600	129.000000
-118.000000	-117.539400	-116.682700	-115.727200	-114.690800	-113.567500	-112.342400	-111.008500	-109.544900	-107.940700	-106.227500	-104.459600	-102.675100	-100.911100	-99.203600	-97.577400	-96.079300	-94.709100	-93.451000	-92.263800	-91.124800	-90.007000	-88.890600	-87.763800	-86.661700	-85.624600	-84.608700	-83.577400	-82.364400	-81.267000	-80.273700	-79.238200	-78.110500	-77.774500	-78.117300	-78.617600	-78.850700	-78.008900	-78.656700	-78.831300	-78.297800	-77.937700	-77.890900	-77.827900	-77.793200	-77.688400	-77.454400	-77.277000	-77.431900	-77.987800	-78.595100	-78.630600	-78.482800	-78.374600	-77.550200	-76.373000	-75.395300	-74.464000	-73.563900	-72.628200	-71.579000	-70.337400	-68.794800	-66.892200	-64.634300	-62.067000	-59.287100	-56.374400	-53.386600	-50.365800	-47.301100	-44.209600	-41.098500	-37.976500	-34.858300	-31.741000	-28.626100	-25.499300	-22.352900	-19.172800	-15.952300	-12.689500	-9.383600	-6.038400	-2.659800	0.752300	4.190100	7.650300	11.128300	14.615100	18.107200	21.601200	25.090000	28.572600	32.044700	35.503600	38.946900	42.372100	45.780200	49.173600	52.551400	55.921800	59.289900	62.653100	66.019200	69.380700	72.747900	76.107200	79.389000	82.518300	85.391000	87.922600	90.018000	91.782800	93.435200	94.831000	95.880300	96.634600	97.229000	97.722600	97.997200	97.839300	97.739100	97.006600	96.454800	96.034600	95.758900	95.046800	94.564700	93.819900	93.573400	93.340000	93.442800	94.126100	94.955100	95.958400	97.249200	99.032500	101.185000	103.493500	105.806800	108.102700	110.409000	112.747300	115.107600	117.406400	119.498100	121.397200	123.311900	125.505700	129.000000
-118.000000	-117.536200	-116.616900	-115.577200	-114.444000	-113.223900	-111.914500	-110.521500	-109.032800	-107.439300	-105.767400	-104.061400	-102.348300	-100.653200	-99.001500	-97.413000	-95.931400	-94.553500	-93.276100	-92.074500	-90.940400	-89.847600	-88.772100	-87.704600	-86.648600	-85.609700	-84.584200	-83.569100	-82.557400	-81.576600	-80.633700	-79.713700	-78.783100	-78.250000	-78.210600	-78.780400	-79.028700	-78.051500	-79.036600	-79.361200	-78.759300	-78.407700	-78.371800	-78.262300	-78.154400	-78.066900	-77.922500	-77.702500	-77.564200	-77.736000	-78.153300	-78.446000	-78.778500	-78.991300	-78.258100	-77.090600	-76.138100	-75.161600	-74.124500	-73.068900	-72.040500	-70.997900	-69.758200	-68.187200	-66.234600	-63.894600	-61.250800	-58.403500	-55.452100	-52.472800	-49.458000	-46.414300	-43.338700	-40.230300	-37.094100	-33.925000	-30.731600	-27.508100	-24.256400	-20.970600	-17.649700	-14.295200	-10.904800	-7.481200	-4.028600	-0.545800	2.961000	6.490000	10.038200	13.599100	17.171300	20.752100	24.335000	27.918000	31.495600	35.063500	38.618000	42.154500	45.671200	49.168100	52.642600	56.104200	59.560000	63.008300	66.460000	69.911800	73.379000	76.858600	80.279900	83.555500	86.545200	89.109100	91.122000	92.746300	94.319200	95.728900	96.784100	97.520900	98.044100	98.337500	98.509000	98.592300	98.691300	97.882100	97.314400	96.857800	96.570300	96.055400	95.438200	94.474200	94.502200	93.884700	93.761500	94.540400	95.251400	96.040500	97.170400	98.900600	101.081900	103.438000	105.760200	108.039100	110.335000	112.686500	115.085500	117.448200	119.613900	121.573700	123.498000	125.575200	129.000000
-118.000000	-117.727000	-117.036300	-116.224500	-115.323200	-114.340600	-113.277800	-112.140900	-110.919900	-109.604200	-108.208100	-106.758200	-105.265900	-103.739900	-102.189300	-100.619600	-99.069900	-97.558600	-96.120400	-94.769800	-93.530200	-92.373600	-91.258100	-90.172100	-89.113300	-88.085200	-87.127200	-86.213900	-85.277800	-84.274800	-83.382400	-82.460300	-81.531300	-80.764700	-80.031900	-79.554000	-79.214600	-78.766500	-79.037600	-79.205300	-79.163700	-79.251200	-79.331500	-79.129000	-78.764300	-78.472100	-78.337500	-78.101000	-77.852400	-77.828300	-78.152800	-78.756300	-79.292500	-79.349300	-78.754500	-77.796500	-76.862400	-75.881700	-74.711000	-73.583800	-72.615600	-71.671600	-70.591000	-69.257400	-67.564600	-65.441700	-62.962200	-60.256500	-57.469800	-54.740100	-52.063600	-49.392300	-46.668000	-43.828400	-40.814700	-37.602600	-34.235800	-30.747200	-27.176700	-23.557500	-19.929900	-16.319400	-12.720100	-9.128400	-5.542400	-1.954400	1.635400	5.231400	8.837600	12.453500	16.084600	19.735200	23.406700	27.099300	30.807000	34.524900	38.249000	41.973800	45.696700	49.416800	53.125200	56.817400	60.484900	64.110200	67.689500	71.205300	74.660500	78.066200	81.421700	84.700400	87.818400	90.633500	92.964200	94.780700	96.233500	97.434900	98.351500	99.003200	99.427400	99.653700	99.721100	99.857600	99.830700	99.348600	98.821400	98.253300	97.838800	97.454800	96.957300	95.942800	95.924400	95.327900	94.687500	95.405700	95.880000	96.450800	97.515900	99.183700	101.262500	103.572900	105.888800	108.150900	110.412600	112.724800	115.093900	117.427800	119.599800	121.669100	123.803200	126.199400	129.000000
-118.000000	-117.799000	-117.218400	-116.524100	-115.745800	-114.887200	-113.946000	-112.923400	-111.806300	-110.581900	-109.262600	-107.875400	-106.433600	-104.948500	-103.430200	-101.880800	-100.330600	-98.800400	-97.328700	-95.932400	-94.644100	-93.449900	-92.314900	-91.206500	-90.122900	-89.107100	-88.187700	-87.297700	-86.316900	-85.275300	-84.366800	-83.347000	-82.359100	-81.582500	-80.772500	-79.904800	-79.368500	-79.268700	-79.116300	-79.162000	-79.362300	-79.532100	-79.550900	-79.318700	-78.920500	-78.584600	-78.462200	-78.282500	-78.129400	-78.204100	-78.579400	-79.072500	-79.378100	-79.168800	-78.529200	-77.659300	-76.717000	-75.745500	-74.597500	-73.505500	-72.542400	-71.525500	-70.342100	-68.921400	-67.172000	-65.032700	-62.580400	-59.944200	-57.253300	-54.639300	-52.091900	-49.543300	-46.914700	-44.129700	-41.118600	-37.856900	-34.402200	-30.801800	-27.110400	-23.373100	-19.640500	-15.943400	-12.274000	-8.626100	-4.995300	-1.371300	2.248300	5.870500	9.501700	13.144000	16.805200	20.491700	24.205300	27.946000	31.706400	35.480400	39.262900	43.047500	46.830600	50.611300	54.381600	58.135900	61.863800	65.545600	69.175300	72.732700	76.218000	79.629000	82.954000	86.156000	89.145300	91.830900	94.130100	95.988300	97.365100	98.383100	99.164300	99.739400	100.107400	100.331900	100.382400	100.432600	100.258300	99.972600	99.476800	98.876900	98.410400	98.002400	97.586200	96.669700	96.475300	96.007400	95.242100	95.847600	96.238800	96.791100	97.811200	99.463800	101.529200	103.798800	106.085600	108.333600	110.577100	112.846500	115.151500	117.430200	119.609600	121.771800	124.048800	126.586800	129.000000
-118.000000	-117.666200	-116.935500	-116.092500	-115.162600	-114.149600	-113.049300	-111.863900	-110.579400	-109.182300	-107.695100	-106.163500	-104.619200	-103.094500	-101.617900	-100.197300	-98.830000	-97.496500	-96.191200	-94.886900	-93.620100	-92.442500	-91.368900	-90.295100	-89.187800	-88.192200	-87.279800	-86.296000	-85.279800	-84.302200	-83.342700	-82.193300	-81.320400	-80.705600	-80.412600	-80.125400	-80.005200	-80.167200	-80.123100	-80.144700	-80.108000	-79.732500	-79.265300	-79.045600	-78.943800	-78.888900	-78.952800	-79.015000	-79.069600	-79.341900	-79.730400	-79.396700	-78.911700	-78.280200	-77.280600	-76.377300	-75.393600	-74.388200	-73.387400	-72.373700	-71.272300	-69.956500	-68.379200	-66.528600	-64.416700	-62.084800	-59.618100	-57.095800	-54.537800	-51.962800	-49.330000	-46.584500	-43.664700	-40.549000	-37.242200	-33.758600	-30.152500	-26.465900	-22.750200	-19.032800	-15.329500	-11.648000	-7.978000	-4.313300	-0.649200	3.024900	6.711800	10.418400	14.151600	17.913300	21.712100	25.548600	29.411300	33.292200	37.177700	41.056000	44.916000	48.745100	52.534500	56.279100	59.986400	63.674500	67.357400	71.039800	74.739500	78.458300	82.217800	85.941100	89.423900	92.442100	94.711600	96.278100	97.567400	98.925100	100.043700	100.665100	101.109400	101.477900	101.666300	101.678000	101.689300	101.582500	101.309700	101.102600	100.644800	100.086600	99.632600	99.159800	98.651500	97.952600	97.500200	96.986700	96.399000	96.775900	97.123000	97.702300	98.389300	100.023500	102.295400	104.561200	106.742200	108.910600	111.099200	113.265600	115.411200	117.606300	119.913300	122.343800	124.817800	127.133700	129.000000
-118.000000	-117.501100	-116.570400	-115.531600	-114.408700	-113.208900	-111.930800	-110.582000	-109.152800	-107.638000	-106.066800	-104.485800	-102.924300	-101.411200	-99.975700	-98.629200	-97.360300	-96.131900	-94.918000	-93.677500	-92.457200	-91.326400	-90.286300	-89.242500	-88.156700	-87.157900	-86.229400	-85.196300	-84.167900	-83.222700	-82.340700	-81.394900	-80.705400	-80.180700	-80.107300	-80.211400	-80.393000	-80.569100	-80.695200	-80.678200	-80.383600	-79.756800	-79.168200	-79.007900	-79.063900	-79.144600	-79.266100	-79.407600	-79.522200	-79.760700	-79.960700	-79.234600	-78.418900	-77.644000	-76.507700	-75.547700	-74.541900	-73.512100	-72.543500	-71.501300	-70.264500	-68.767400	-66.991900	-64.945100	-62.679400	-60.274000	-57.801600	-55.305800	-52.757200	-50.124100	-47.355600	-44.419400	-41.279700	-37.950000	-34.475500	-30.888700	-27.236900	-23.551300	-19.870400	-16.205700	-12.552400	-8.904900	-5.253000	-1.591500	2.083000	5.780100	9.501300	13.252600	17.039500	20.862700	24.729100	28.635300	32.563900	36.504500	40.441800	44.363000	48.255100	52.104300	55.900400	59.636600	63.323000	66.984000	70.640000	74.302700	77.996100	81.728800	85.528100	89.289800	92.746700	95.615600	97.551600	98.617200	99.390800	100.413800	101.368500	101.833000	102.126900	102.392900	102.485600	102.378400	102.357500	102.166800	101.892400	101.649600	101.204900	100.685400	100.262500	99.772400	99.206400	98.560400	98.064900	97.475100	96.948100	97.262200	97.623200	98.153000	98.661100	100.278200	102.642100	104.941900	107.090400	109.188200	111.309700	113.434500	115.562000	117.756400	120.087500	122.548000	125.009700	127.194000	129.000000
-118.000000	-117.116700	-115.736500	-114.280200	-112.771100	-111.226300	-109.654400	-108.079400	-106.511400	-104.977100	-103.508400	-102.112800	-100.771200	-99.458400	-98.167800	-96.906400	-95.681600	-94.474100	-93.270800	-92.066700	-90.950300	-89.942600	-88.894000	-87.873100	-86.893400	-85.864800	-84.901700	-83.899800	-82.880900	-81.946500	-81.519600	-81.601200	-81.393200	-80.946100	-80.686800	-80.735500	-81.076500	-81.272200	-81.269400	-80.940300	-80.370800	-79.912400	-79.721200	-79.749900	-79.834900	-79.869400	-79.873600	-79.920500	-79.953700	-79.726900	-79.100800	-78.163800	-77.148200	-76.192700	-75.133300	-74.121400	-73.086800	-72.010400	-70.876900	-69.566600	-68.003400	-66.196500	-64.185600	-62.005600	-59.696700	-57.307100	-54.845400	-52.297100	-49.622300	-46.790400	-43.764000	-40.555200	-37.177900	-33.666400	-30.070800	-26.423000	-22.763500	-19.105300	-15.457900	-11.815300	-8.168100	-4.509800	-0.831900	2.868500	6.592900	10.348600	14.134800	17.955500	21.813800	25.708000	29.638600	33.599100	37.576100	41.563100	45.550100	49.529000	53.491500	57.428900	61.335500	65.203800	69.024800	72.796700	76.513500	80.160300	83.735800	87.224900	90.627900	93.855400	96.752100	99.156400	100.861000	101.802300	102.319700	102.934700	103.552300	103.851200	103.968300	104.076500	104.029600	103.837000	103.723400	103.345900	103.034800	102.753800	102.337400	101.868600	101.485100	101.006000	100.508600	99.812700	99.370700	98.745300	97.958100	98.266800	98.662700	98.869400	99.184100	100.735600	103.060600	105.442200	107.607500	109.525700	111.428500	113.513800	115.791800	118.064100	120.230700	122.386700	124.592500	126.884200	129.000000
-118.000000	-116.956600	-115.391800	-113.769500	-112.113700	-110.446200	-108.781100	-107.150200	-105.574300	-104.086900	-102.709700	-101.425900	-100.194100	-98.969400	-97.727500	-96.466500	-95.207700	-93.957500	-92.729400	-91.543000	-90.479100	-89.515800	-88.457700	-87.429900	-86.483600	-85.461500	-84.477400	-83.545000	-82.664500	-81.850300	-81.630100	-82.035400	-81.955300	-81.548300	-81.178700	-81.079700	-81.341000	-81.500100	-81.364300	-80.925300	-80.365500	-80.100700	-80.126200	-80.191800	-80.222300	-80.203500	-80.150100	-80.080200	-79.923900	-79.399000	-78.433300	-77.508800	-76.491600	-75.485300	-74.506200	-73.493600	-72.447600	-71.313100	-70.023000	-68.549500	-66.867600	-64.981100	-62.924100	-60.728600	-58.414300	-56.005300	-53.491100	-50.850300	-48.061900	-45.117700	-41.992900	-38.711600	-35.299900	-31.786200	-28.205300	-24.579300	-20.944300	-17.306300	-13.665800	-10.014000	-6.347500	-2.664300	1.042800	4.775500	8.534400	12.325700	16.147500	20.002600	23.893100	27.815500	31.767600	35.742800	39.731400	43.730400	47.732500	51.732500	55.725300	59.704900	63.668000	67.606400	71.500200	75.332200	79.080300	82.713700	86.215900	89.557200	92.717000	95.620300	98.188300	100.339500	101.954900	102.929500	103.459200	103.963200	104.429800	104.672100	104.751500	104.793200	104.706300	104.502900	104.342900	103.917900	103.579600	103.274100	102.867900	102.428600	102.057100	101.583800	101.142900	100.439000	99.992200	99.378500	98.508100	98.771100	99.174600	99.219500	99.453100	100.970600	103.259500	105.632000	107.782200	109.632100	111.457000	113.530600	115.860700	118.144800	120.216900	122.224000	124.335300	126.734200	129.000000
-118.000000	-116.790000	-115.029900	-113.235600	-111.432900	-109.650600	-107.909600	-106.251800	-104.712300	-103.297300	-101.985000	-100.732500	-99.496300	-98.255000	-96.984500	-95.656600	-94.300700	-92.973800	-91.750800	-90.665500	-89.687400	-88.731300	-87.701600	-86.646300	-85.661600	-84.726600	-83.709200	-82.990100	-82.731800	-82.499100	-82.344400	-82.304700	-82.055200	-81.825800	-81.708100	-81.668600	-81.687900	-81.642600	-81.461500	-81.147400	-80.825800	-80.694500	-80.665900	-80.583300	-80.531600	-80.573500	-80.582300	-80.260000	-79.473700	-78.513000	-77.476000	-76.458900	-75.365100	-74.305600	-73.318600	-72.317500	-71.237100	-69.887800	-68.273100	-66.564700	-64.805300	-62.916400	-60.829900	-58.536400	-56.050000	-53.404300	-50.618200	-47.705400	-44.677000	-41.548100	-38.308500	-34.978800	-31.573800	-28.105700	-24.591300	-21.036300	-17.459000	-13.856500	-10.228400	-6.567400	-2.873900	0.851300	4.613000	8.411000	12.243300	16.114400	20.019900	23.960400	27.935400	31.936600	35.959800	39.998500	44.044100	48.094300	52.142900	56.185400	60.217500	64.234100	68.229200	72.189900	76.091100	79.909800	83.617600	87.178300	90.569300	93.754800	96.686700	99.283300	101.481600	103.215400	104.383800	104.987600	105.310800	105.644600	105.884800	105.982300	106.032100	105.951900	105.828200	105.570000	105.344200	104.980000	104.594300	104.191800	103.789000	103.436000	103.083400	102.592300	102.172300	101.618300	100.981300	100.381100	99.812800	99.770300	100.144900	100.064200	100.044700	101.510100	103.870900	106.079000	108.064500	109.877100	111.714400	113.750700	115.954900	118.118900	120.157900	122.197800	124.403800	126.826300	129.000000
-118.000000	-116.761400	-114.966200	-113.141800	-111.314700	-109.515300	-107.766400	-106.111900	-104.590400	-103.191600	-101.875300	-100.593700	-99.309100	-98.021700	-96.719300	-95.366300	-93.984800	-92.642300	-91.430300	-90.379200	-89.412600	-88.436100	-87.424600	-86.371100	-85.364900	-84.462300	-83.467900	-82.892600	-82.907800	-82.893100	-82.657700	-82.256200	-81.885600	-81.762300	-81.825600	-81.859200	-81.789200	-81.666600	-81.520700	-81.316100	-81.111500	-80.969600	-80.832200	-80.667400	-80.571800	-80.648600	-80.676700	-80.205600	-79.161200	-78.079700	-77.118000	-76.040200	-74.905300	-73.835700	-72.813500	-71.806100	-70.693100	-69.248800	-67.523900	-65.730100	-63.920400	-61.996700	-59.861700	-57.497500	-54.922400	-52.176000	-49.291200	-46.293200	-43.195900	-40.016200	-36.749100	-33.410900	-30.008400	-26.550100	-23.050800	-19.511400	-15.942500	-12.338900	-8.703200	-5.029600	-1.317800	2.431500	6.222400	10.054200	13.924100	17.835700	21.783900	25.768600	29.788000	33.831800	37.895800	41.973600	46.055400	50.138600	54.216000	58.282500	62.333200	66.362000	70.359400	74.308900	78.185800	81.969000	85.631800	89.139900	92.472500	95.595200	98.455300	100.967100	103.051100	104.623300	105.564100	105.940000	106.119200	106.367400	106.533000	106.567700	106.591000	106.473900	106.327600	106.035000	105.789000	105.467600	105.057100	104.614700	104.208700	103.882000	103.531400	103.039500	102.614800	102.133900	101.423900	100.839200	100.477400	100.283400	100.617300	100.526000	100.372800	101.803600	104.230500	106.370400	108.268100	110.078700	111.948300	113.958400	116.061400	118.152200	120.225100	122.362500	124.645400	126.987700	129.000000
-118.000000	-116.752200	-114.943900	-113.106800	-111.267800	-109.457700	-107.699400	-106.037500	-104.511600	-103.105800	-101.774800	-100.465400	-99.137000	-97.808200	-96.497000	-95.179600	-93.845600	-92.532700	-91.315500	-90.214600	-89.181500	-88.156300	-87.149000	-86.162100	-85.201900	-84.259200	-83.438300	-83.216700	-83.343000	-83.210100	-82.749600	-82.148000	-81.794500	-81.852100	-82.015900	-81.990000	-81.904200	-81.828900	-81.732600	-81.590700	-81.428900	-81.256800	-81.084500	-80.929000	-80.699300	-80.699100	-80.556400	-79.717900	-78.566000	-77.415200	-76.421700	-75.303600	-74.161500	-73.089000	-72.054700	-70.984800	-69.765200	-68.261500	-66.494000	-64.548800	-62.454700	-60.209200	-57.813200	-55.304400	-52.697600	-49.994200	-47.188300	-44.266900	-41.210600	-38.033200	-34.740700	-31.358300	-27.899800	-24.382900	-20.828500	-17.234200	-13.607800	-9.943400	-6.244600	-2.506100	1.272800	5.091300	8.953700	12.858700	16.803400	20.791300	24.817000	28.879700	32.975500	37.093100	41.228300	45.374900	49.522800	53.668900	57.806200	61.929100	66.032600	70.108900	74.140000	78.102500	81.966800	85.706600	89.290800	92.680600	95.851000	98.763700	101.374000	103.619200	105.437300	106.760900	107.491400	107.693100	107.685500	107.726400	107.807300	107.783500	107.677800	107.560300	107.318500	106.970100	106.701000	106.368000	105.896300	105.448700	105.033900	104.677200	104.308400	103.870700	103.475100	102.979700	102.366400	101.856200	101.662000	101.365600	101.567600	101.447200	101.090800	102.407700	104.931600	107.113200	108.940400	110.713900	112.583200	114.529700	116.512200	118.543900	120.708500	123.007900	125.282000	127.337000	129.000000
-118.000000	-116.758700	-114.957500	-113.125100	-111.288400	-109.477800	-107.715300	-106.044900	-104.505100	-103.085400	-101.746700	-100.434400	-99.101700	-97.768600	-96.469800	-95.194600	-93.911700	-92.630200	-91.402000	-90.243000	-89.152100	-88.101500	-87.086800	-86.150800	-85.239300	-84.246800	-83.547500	-83.520100	-83.577900	-83.229100	-82.643000	-82.099600	-81.831400	-81.969300	-82.105300	-81.988200	-81.939800	-81.945400	-81.865200	-81.707000	-81.511500	-81.325400	-81.192400	-81.092100	-80.782200	-80.700800	-80.412900	-79.371400	-78.281300	-77.141000	-76.073500	-74.959200	-73.835500	-72.765700	-71.743600	-70.628800	-69.344600	-67.848400	-66.108400	-64.091700	-61.802700	-59.325000	-56.752700	-54.171700	-51.591400	-48.979200	-46.290900	-43.476700	-40.490300	-37.342000	-34.043900	-30.630700	-27.126700	-23.558600	-19.952800	-16.307000	-12.631500	-8.920500	-5.177000	-1.395000	2.426000	6.285100	10.186800	14.130000	18.112000	22.136700	26.198700	30.297300	34.427700	38.578700	42.746400	46.924300	51.102800	55.279300	59.446800	63.600200	67.734800	71.841800	75.898800	79.879200	83.748800	87.476400	91.025700	94.353400	97.429700	100.212300	102.665000	104.745500	106.416400	107.635000	108.331300	108.529400	108.459800	108.386500	108.441900	108.407700	108.216200	108.118600	107.814600	107.442300	107.166100	106.798700	106.293100	105.863900	105.444300	105.049700	104.665600	104.270900	103.901700	103.352500	102.856600	102.395800	102.211800	101.922200	102.044900	101.905200	101.466100	102.713500	105.274300	107.527600	109.350100	111.094800	112.943900	114.855700	116.803500	118.831400	121.046500	123.413400	125.634600	127.513800	129.000000
[Q]
0.000000	0.000000	0.000000	0.000000	0.000000	0.000000	0.000000	0.000000	0.000000	0.000000	0.000000	0.000000	0.000000	0.000000	0.000000	0.000000	0.000000	0.000000	0.000000	0.000000	0.000000	0.000000	0.000000	0.000000	0.000000	0.000000	0.000000	0.000000	0.000000	0.000000	0.000000	0.000000	0.000000	0.000000	0.000000	0.000000	0.000000	0.000000	0.000000	0.000000	0.000000	0.000000	0.000000	0.000000	0.000000	0.000000	0.000000	0.000000	0.000000	0.000000	0.000000	0.000000	0.000000	0.000000	0.000000	0.000000	0.000000	0.000000	0.000000	0.000000	0.000000	0.000000	0.000000	0.000000	0.000000	0.000000	0.000000	0.000000	0.000000	0.000000	0.000000	0.000000	0.000000	0.000000	0.000000	0.000000	0.000000	0.000000	0.000000	0.000000	0.000000	0.000000	0.000000	0.000000	0.000000	0.000000	0.000000	0.000000	0.000000	0.000000	0.000000	0.000000	0.000000	0.000000	0.000000	0.000000	0.000000	0.000000	0.000000	0.000000	0.000000	0.000000	0.000000	0.000000	0.000000	0.000000	0.000000	0.000000	0.000000	0.000000	0.000000	0.000000	0.000000	0.000000	0.000000	0.000000	0.000000	0.000000	0.000000	0.000000	0.000000	0.000000	0.000000	0.000000	0.000000	0.000000	0.000000	0.000000	0.000000	0.000000	0.000000	0.000000	0.000000	0.000000	0.000000	0.000000	0.000000	0.000000	0.000000	0.000000	0.000000	0.000000	0.000000	0.000000	0.000000	0.000000	0.000000	0.000000	0.000000	0.000000	0.000000
-0.062100	-0.065800	-0.065500	-0.063800	-0.061500	-0.059000	-0.056300	-0.053400	-0.050800	-0.048500	-0.046500	-0.045000	-0.043700	-0.042700	-0.041600	-0.040700	-0.039600	-0.038500	-0.037100	-0.035800	-0.034200	-0.032500	-0.030800	-0.029100	-0.027300	-0.025400	-0.023500	-0.021500	-0.019600	-0.017400	-0.015400	-0.013200	-0.011000	-0.008700	-0.006400	-0.004200	-0.001900	0.000300	0.002500	0.004800	0.007100	0.009300	0.011600	0.013700	0.015100	0.016600	0.018000	0.019000	0.019500	0.019500	0.019300	0.019500	0.019700	0.020000	0.020600	0.021200	0.021900	0.022400	0.022800	0.023100	0.023300	0.023400	0.023600	0.023700	0.023800	0.023900	0.024000	0.024200	0.024500	0.024700	0.024900	0.025100	0.025200	0.025200	0.025200	0.025000	0.024800	0.024400	0.024100	0.023700	0.023400	0.022900	0.022600	0.022200	0.021900	0.021700	0.021500	0.021400	0.021300	0.021200	0.021100	0.021000	0.020700	0.020700	0.020500	0.020300	0.020100	0.019900	0.019800	0.019600	0.019300	0.019100	0.018800	0.018500	0.018200	0.017800	0.017400	0.017100	0.016800	0.016400	0.015900	0.015500	0.014900	0.014300	0.012900	0.011500	0.009900	0.008200	0.006000	0.003900	0.001600	-0.000600	-0.002700	-0.004900	-0.007100	-0.009200	-0.011300	-0.013200	-0.014800	-0.016200	-0.017600	-0.018800	-0.020100	-0.021300	-0.022600	-0.023900	-0.025400	-0.026800	-0.028300	-0.029600	-0.031000	-0.032300	-0.033500	-0.034400	-0.035200	-0.035700	-0.036000	-0.036200	-0.036500	-0.037200	-0.039800
-0.090200	-0.094100	-0.093400	-0.091000	-0.087900	-0.084500	-0.080900	-0.077200	-0.073700	-0.070500	-0.067800	-0.065500	-0.063700	-0.062100	-0.060500	-0.059000	-0.057400	-0.055700	-0.053700	-0.051700	-0.049500	-0.047000	-0.044600	-0.042100	-0.039500	-0.036800	-0.034100	-0.031200	-0.028400	-0.025300	-0.022400	-0.019200	-0.016000	-0.012800	-0.009500	-0.006400	-0.003100	0.000000	0.003200	0.006600	0.009800	0.012900	0.016300	0.019300	0.021400	0.023600	0.025600	0.027200	0.028100	0.028300	0.028300	0.028700	0.029100	0.029500	0.030300	0.031200	0.032100	0.032700	0.033300	0.033700	0.034000	0.034200	0.034500	0.034700	0.034900	0.035000	0.035200	0.035600	0.035900	0.036200	0.036500	0.036800	0.037000	0.037100	0.037000	0.036900	0.036600	0.036200	0.035900	0.035400	0.035100	0.034500	0.034200	0.033700	0.033300	0.033100	0.032800	0.032600	0.032500	0.032300	0.032100	0.031900	0.031600	0.031400	0.031200	0.030900	0.030600	0.030300	0.030100	0.029800	0.029400	0.029000	0.028600	0.028200	0.027600	0.027100	0.026500	0.026000	0.025500	0.024900	0.024100	0.023400	0.022400	0.021300	0.019300	0.017300	0.014800	0.012400	0.009200	0.006200	0.003000	-0.000200	-0.003200	-0.006400	-0.009600	-0.012700	-0.015700	-0.018400	-0.020800	-0.022800	-0.024900	-0.026600	-0.028500	-0.030300	-0.032200	-0.034100	-0.036300	-0.038300	-0.040400	-0.042400	-0.044300	-0.046100	-0.047800	-0.049100	-0.050300	-0.051200	-0.051800	-0.052200	-0.052900	-0.054000	-0.057300
-0.134800	-0.132800	-0.129800	-0.126600	-0.123100	-0.119700	-0.116200	-0.112600	-0.109000	-0.105400	-0.102000	-0.098800	-0.095900	-0.093000	-0.090200	-0.087500	-0.084700	-0.081700	-0.078700	-0.075600	-0.072300	-0.068900	-0.065400	-0.061800	-0.058100	-0.054200	-0.050300	-0.046200	-0.042100	-0.037800	-0.033500	-0.029000	-0.024500	-0.019900	-0.015300	-0.010900	-0.006200	-0.001800	0.002800	0.007400	0.011900	0.016400	0.021000	0.025200	0.028800	0.032400	0.035500	0.038400	0.040700	0.042500	0.043800	0.044900	0.045800	0.046600	0.047500	0.048300	0.049200	0.049900	0.050600	0.051200	0.051700	0.052100	0.052600	0.053100	0.053600	0.054000	0.054500	0.055000	0.055500	0.055900	0.056300	0.056700	0.057100	0.057400	0.057700	0.058000	0.058200	0.058300	0.058500	0.058500	0.058600	0.058500	0.058500	0.058300	0.058100	0.057900	0.057600	0.057200	0.056900	0.056500	0.056100	0.055700	0.055200	0.054800	0.054400	0.053900	0.053400	0.052900	0.052400	0.051800	0.051100	0.050400	0.049700	0.048900	0.048000	0.047100	0.046100	0.045200	0.044100	0.042900	0.041300	0.039600	0.037300	0.034900	0.031700	0.028500	0.024800	0.021000	0.016500	0.012200	0.007600	0.003100	-0.001300	-0.005800	-0.010300	-0.014700	-0.019000	-0.023000	-0.026800	-0.030100	-0.033300	-0.036200	-0.039100	-0.041900	-0.044900	-0.047900	-0.050900	-0.053900	-0.056700	-0.059400	-0.062000	-0.064400	-0.066700	-0.068700	-0.070700	-0.072500	-0.074400	-0.076100	-0.077900	-0.079800	-0.083100
-0.167400	-0.158800	-0.153600	-0.150100	-0.147100	-0.144400	-0.141800	-0.139100	-0.136200	-0.133000	-0.129500	-0.125900	-0.122200	-0.118400	-0.114600	-0.110900	-0.107100	-0.103100	-0.099200	-0.095300	-0.091400	-0.087400	-0.083300	-0.079100	-0.074900	-0.070600	-0.066200	-0.061600	-0.056900	-0.052200	-0.047300	-0.042300	-0.037400	-0.032500	-0.027400	-0.022600	-0.017400	-0.012400	-0.007300	-0.002400	0.002600	0.007600	0.012400	0.017200	0.022200	0.026700	0.030800	0.035100	0.039700	0.044000	0.047700	0.050500	0.052800	0.054600	0.056100	0.057300	0.058400	0.059400	0.060300	0.061200	0.062000	0.062900	0.063800	0.064800	0.065800	0.066700	0.067600	0.068300	0.068900	0.069400	0.069900	0.070400	0.071000	0.071700	0.072600	0.073600	0.074700	0.075900	0.077100	0.078200	0.079300	0.080300	0.081100	0.081800	0.082300	0.082500	0.082400	0.082100	0.081700	0.081100	0.080500	0.079900	0.079300	0.078600	0.078000	0.077400	0.076700	0.076000	0.075200	0.074300	0.073400	0.072400	0.071300	0.070200	0.069000	0.067700	0.066400	0.064900	0.063200	0.061400	0.059100	0.056200	0.052800	0.048900	0.044900	0.040700	0.036100	0.031400	0.026500	0.021600	0.016600	0.011600	0.006700	0.001800	-0.003300	-0.008300	-0.013200	-0.018000	-0.022700	-0.027100	-0.031400	-0.035400	-0.039100	-0.042800	-0.046500	-0.050200	-0.053600	-0.057000	-0.060000	-0.062900	-0.065600	-0.068200	-0.070700	-0.073200	-0.075900	-0.079000	-0.082300	-0.085700	-0.088900	-0.091600	-0.093500
-0.208700	-0.215800	-0.213700	-0.209100	-0.203400	-0.197000	-0.190500	-0.183900	-0.177600	-0.171900	-0.166900	-0.162500	-0.158600	-0.155000	-0.151500	-0.148100	-0.144400	-0.140200	-0.135800	-0.131100	-0.126400	-0.121400	-0.116400	-0.111500	-0.106500	-0.101600	-0.096600	-0.091600	-0.086500	-0.081400	-0.076300	-0.071100	-0.065800	-0.060500	-0.055100	-0.049700	-0.044100	-0.038700	-0.033100	-0.027700	-0.022200	-0.016700	-0.011300	-0.005700	-0.000300	0.004900	0.009900	0.015300	0.020800	0.026100	0.030900	0.036000	0.040900	0.045700	0.050500	0.055100	0.059000	0.062000	0.064100	0.065900	0.067500	0.069100	0.070600	0.072100	0.073400	0.074700	0.075900	0.077100	0.078100	0.079100	0.080100	0.081000	0.081900	0.082800	0.083700	0.084700	0.085800	0.087000	0.088200	0.089500	0.090700	0.091900	0.093100	0.094100	0.095000	0.095800	0.096300	0.096600	0.096600	0.096300	0.095900	0.095300	0.094600	0.093900	0.093100	0.092300	0.091600	0.090900	0.090100	0.089300	0.088400	0.087400	0.086200	0.084900	0.083400	0.081900	0.080200	0.078500	0.076700	0.074800	0.072800	0.070700	0.068000	0.064100	0.059600	0.054600	0.049800	0.044700	0.039400	0.034000	0.028600	0.023100	0.017700	0.012200	0.006900	0.001400	-0.004100	-0.009500	-0.014900	-0.020200	-0.025300	-0.030100	-0.034900	-0.039300	-0.043500	-0.047700	-0.051700	-0.055500	-0.059000	-0.062300	-0.065400	-0.068700	-0.072000	-0.075500	-0.078800	-0.081800	-0.084600	-0.087500	-0.090400	-0.093700	-0.097600
-0.217400	-0.211300	-0.204200	-0.198400	-0.193600	-0.189600	-0.186100	-0.182800	-0.179400	-0.175700	-0.171700	-0.167400	-0.163100	-0.158600	-0.154200	-0.149600	-0.144800	-0.140000	-0.135000	-0.130000	-0.125000	-0.120000	-0.114900	-0.109800	-0.104600	-0.099000	-0.093500	-0.088200	-0.083000	-0.077500	-0.071700	-0.066100	-0.060400	-0.054700	-0.049000	-0.043400	-0.037600	-0.032000	-0.026200	-0.020500	-0.014800	-0.009100	-0.003400	0.002100	0.007600	0.013300	0.019000	0.024500	0.029800	0.035300	0.040600	0.045900	0.051100	0.056300	0.061300	0.065900	0.069800	0.073200	0.075900	0.078100	0.080000	0.081500	0.082900	0.084300	0.085600	0.087000	0.088400	0.089800	0.091300	0.092900	0.094600	0.096300	0.098100	0.099800	0.101400	0.103000	0.104500	0.105900	0.107100	0.108200	0.109200	0.110100	0.110800	0.111300	0.111700	0.111800	0.111800	0.111600	0.111200	0.110700	0.110000	0.109300	0.108500	0.107700	0.106900	0.106100	0.105400	0.104600	0.103700	0.102700	0.101500	0.100200	0.098600	0.096800	0.095000	0.093000	0.090900	0.088700	0.086600	0.084100	0.081300	0.078000	0.074000	0.069600	0.064800	0.059700	0.054000	0.048300	0.042700	0.037000	0.031200	0.025600	0.019900	0.014200	0.008600	0.003100	-0.002600	-0.008300	-0.014000	-0.019600	-0.025000	-0.030200	-0.035300	-0.040200	-0.045100	-0.049800	-0.054000	-0.057900	-0.061400	-0.064900	-0.068400	-0.072100	-0.075800	-0.079500	-0.083000	-0.086300	-0.090000	-0.093600	-0.097300	-0.101400	-0.104700
-0.247200	-0.243000	-0.237000	-0.231000	-0.225000	-0.219100	-0.213400	-0.208100	-0.203200	-0.198600	-0.194200	-0.190000	-0.185800	-0.181300	-0.176500	-0.171500	-0.166200	-0.160800	-0.155500	-0.150100	-0.144700	-0.139200	-0.133700	-0.128100	-0.122500	-0.116900	-0.111400	-0.105700	-0.099700	-0.093800	-0.087900	-0.081800	-0.075700	-0.069600	-0.063600	-0.057700	-0.051500	-0.045500	-0.039300	-0.033300	-0.027200	-0.021200	-0.015100	-0.009100	-0.003000	0.003000	0.008900	0.015000	0.020900	0.026900	0.032400	0.038200	0.044100	0.049700	0.055400	0.061200	0.066600	0.071700	0.076200	0.080200	0.083600	0.086700	0.089300	0.091500	0.093400	0.095200	0.096900	0.098500	0.100300	0.102300	0.104500	0.106800	0.109200	0.111600	0.114000	0.116200	0.118200	0.119900	0.121400	0.122600	0.123700	0.124500	0.125100	0.125500	0.125800	0.125900	0.125800	0.125500	0.125200	0.124700	0.124100	0.123400	0.122600	0.121800	0.120900	0.120000	0.119100	0.118100	0.117100	0.115900	0.114600	0.113200	0.111600	0.109800	0.107700	0.105400	0.103000	0.100700	0.098200	0.095600	0.092700	0.088800	0.084200	0.079000	0.073700	0.068100	0.062300	0.056500	0.050500	0.044500	0.038500	0.032400	0.026400	0.020400	0.014400	0.008400	0.002500	-0.003500	-0.009500	-0.015500	-0.021400	-0.027200	-0.032900	-0.038500	-0.044000	-0.049100	-0.053700	-0.058000	-0.062000	-0.066000	-0.070200	-0.074400	-0.078500	-0.082300	-0.086200	-0.090400	-0.094900	-0.099800	-0.104200	-0.108000	-0.110900
-0.296200	-0.294400	-0.290600	-0.286300	-0.281500	-0.276400	-0.270900	-0.265000	-0.258700	-0.252000	-0.244900	-0.237600	-0.230200	-0.223000	-0.215800	-0.208800	-0.202200	-0.196300	-0.190500	-0.184800	-0.179000	-0.173000	-0.166900	-0.160900	-0.154800	-0.148800	-0.142600	-0.136500	-0.130500	-0.124400	-0.118200	-0.112000	-0.105800	-0.099400	-0.092800	-0.086600	-0.079900	-0.073400	-0.066800	-0.060400	-0.053800	-0.047300	-0.040800	-0.034300	-0.028000	-0.021500	-0.014900	-0.008400	-0.001800	0.004800	0.011200	0.017500	0.023900	0.030100	0.036300	0.042500	0.048700	0.054900	0.061100	0.067200	0.073000	0.078000	0.082600	0.086500	0.090100	0.093300	0.096300	0.099000	0.101600	0.104200	0.106800	0.109300	0.112000	0.114700	0.117500	0.120200	0.122800	0.125300	0.127600	0.129800	0.131700	0.133500	0.135000	0.136400	0.137500	0.138400	0.139100	0.139500	0.139700	0.139700	0.139500	0.139100	0.138400	0.137600	0.136700	0.135700	0.134600	0.133400	0.132200	0.131000	0.129800	0.128500	0.127100	0.125600	0.124000	0.122000	0.119800	0.117300	0.114400	0.111300	0.107700	0.103600	0.099200	0.094100	0.088500	0.082500	0.076400	0.070100	0.063700	0.057300	0.050800	0.044400	0.037900	0.031400	0.025000	0.018600	0.012100	0.005700	-0.000700	-0.007200	-0.013500	-0.019900	-0.026300	-0.032600	-0.038800	-0.044700	-0.050100	-0.055300	-0.060100	-0.064700	-0.069200	-0.073700	-0.078400	-0.083200	-0.088100	-0.092600	-0.096600	-0.100100	-0.103600	-0.107900	-0.112900
-0.322600	-0.320400	-0.316200	-0.311500	-0.306400	-0.300900	-0.294800	-0.288400	-0.281400	-0.273800	-0.265800	-0.257500	-0.249300	-0.241300	-0.233600	-0.226400	-0.219900	-0.213900	-0.208100	-0.202000	-0.195700	-0.189100	-0.182500	-0.175900	-0.169300	-0.162800	-0.156100	-0.149500	-0.143000	-0.136400	-0.129600	-0.123000	-0.116400	-0.109400	-0.102700	-0.094000	-0.088500	-0.093400	-0.088800	-0.081300	-0.074800	-0.068100	-0.061100	-0.054200	-0.047300	-0.040400	-0.033400	-0.026300	-0.019400	-0.012200	-0.005400	0.001500	0.008400	0.015300	0.022000	0.028500	0.035200	0.041900	0.048700	0.055500	0.062200	0.068600	0.074800	0.080500	0.085800	0.090600	0.094900	0.098800	0.102400	0.105800	0.109000	0.112200	0.115300	0.118300	0.121500	0.124500	0.127600	0.130700	0.133500	0.136400	0.138900	0.141400	0.143600	0.145700	0.147500	0.149000	0.150400	0.151500	0.152300	0.152900	0.153200	0.153200	0.153000	0.152600	0.151900	0.151200	0.150200	0.149100	0.147900	0.146800	0.145500	0.144100	0.142700	0.141100	0.139500	0.137600	0.135600	0.133300	0.130600	0.127400	0.123600	0.119100	0.113800	0.107900	0.101800	0.095500	0.088800	0.082100	0.075300	0.068300	0.061400	0.054500	0.047500	0.040700	0.033800	0.027000	0.020100	0.013200	0.006400	-0.000500	-0.007200	-0.014000	-0.021000	-0.027700	-0.034400	-0.041200	-0.047600	-0.053400	-0.058700	-0.063800	-0.068700	-0.073700	-0.078900	-0.084200	-0.089500	-0.094500	-0.098900	-0.102500	-0.106100	-0.110200	-0.116900
-0.334500	-0.332200	-0.327700	-0.322800	-0.317300	-0.311400	-0.305100	-0.298400	-0.291300	-0.283700	-0.275700	-0.267600	-0.259400	-0.251500	-0.243800	-0.236400	-0.229700	-0.223200	-0.216900	-0.210500	-0.203700	-0.196900	-0.190100	-0.183300	-0.176500	-0.169700	-0.162900	-0.156000	-0.149200	-0.142300	-0.135300	-0.128400	-0.121600	-0.114400	-0.107600	-0.098200	-0.092900	-0.100900	-0.096800	-0.089000	-0.082400	-0.075500	-0.068400	-0.061200	-0.054100	-0.047000	-0.039900	-0.032600	-0.025400	-0.018100	-0.011200	-0.004000	0.003200	0.010400	0.017300	0.024000	0.031000	0.037900	0.044700	0.051600	0.058400	0.065200	0.072000	0.078400	0.084300	0.089600	0.094400	0.098800	0.102900	0.106900	0.110700	0.114400	0.118100	0.121500	0.124900	0.128100	0.131300	0.134300	0.137200	0.139900	0.142500	0.145000	0.147400	0.149600	0.151600	0.153400	0.155000	0.156500	0.157600	0.158500	0.159100	0.159400	0.159500	0.159300	0.158800	0.158200	0.157300	0.156300	0.155200	0.154100	0.152800	0.151400	0.150000	0.148300	0.146700	0.144700	0.142600	0.140300	0.137500	0.134300	0.130300	0.125700	0.120000	0.113700	0.107300	0.100800	0.093900	0.087000	0.079900	0.072700	0.065600	0.058500	0.051300	0.044400	0.037200	0.030200	0.023100	0.016000	0.008900	0.002000	-0.005000	-0.012000	-0.019000	-0.025900	-0.032900	-0.039900	-0.046700	-0.052800	-0.058400	-0.063700	-0.068800	-0.074100	-0.079400	-0.084900	-0.090300	-0.095700	-0.100400	-0.104400	-0.108300	-0.112500	-0.119500
-0.369400	-0.367800	-0.364000	-0.359500	-0.354500	-0.349000	-0.343100	-0.336700	-0.329900	-0.322500	-0.314600	-0.306400	-0.297900	-0.289200	-0.280400	-0.271400	-0.262500	-0.253800	-0.245400	-0.237400	-0.229800	-0.222700	-0.215800	-0.208800	-0.201800	-0.194500	-0.187400	-0.180200	-0.172900	-0.165700	-0.158500	-0.151300	-0.144200	-0.136800	-0.129600	-0.121600	-0.114800	-0.113100	-0.106800	-0.099100	-0.091900	-0.084500	-0.077100	-0.069600	-0.062200	-0.054800	-0.047300	-0.039800	-0.032300	-0.024700	-0.017500	-0.010000	-0.002500	0.005000	0.012400	0.019500	0.026800	0.034000	0.041100	0.048100	0.055300	0.062500	0.069700	0.076800	0.083300	0.089300	0.094800	0.099900	0.104900	0.110200	0.115400	0.120700	0.125700	0.130300	0.134400	0.137800	0.140700	0.143200	0.145500	0.147600	0.149800	0.152000	0.154300	0.156600	0.158900	0.161200	0.163200	0.165200	0.166900	0.168500	0.169600	0.170500	0.171100	0.171100	0.171000	0.170500	0.169800	0.168900	0.167900	0.166900	0.165700	0.164400	0.163100	0.161500	0.159700	0.157500	0.155000	0.152000	0.148500	0.144500	0.140000	0.134900	0.129100	0.122700	0.115800	0.108900	0.101600	0.094400	0.086900	0.079400	0.072100	0.064600	0.057100	0.049700	0.042300	0.035000	0.027600	0.020100	0.012700	0.005500	-0.001800	-0.009200	-0.016300	-0.023700	-0.031000	-0.038400	-0.045500	-0.052100	-0.058100	-0.063900	-0.069500	-0.075200	-0.080800	-0.086700	-0.092600	-0.098300	-0.103300	-0.107900	-0.112600	-0.118000	-0.124200
-0.382300	-0.381000	-0.377500	-0.373200	-0.368300	-0.363000	-0.357300	-0.351000	-0.344100	-0.336600	-0.328500	-0.320000	-0.311100	-0.302100	-0.292800	-0.283300	-0.273800	-0.264500	-0.255500	-0.247100	-0.239300	-0.232100	-0.225100	-0.218100	-0.210900	-0.203600	-0.196200	-0.188900	-0.181600	-0.174300	-0.167000	-0.159800	-0.152500	-0.145100	-0.137600	-0.130500	-0.122800	-0.115200	-0.107600	-0.100000	-0.092500	-0.084900	-0.077400	-0.069800	-0.062300	-0.054800	-0.047200	-0.039600	-0.031900	-0.024200	-0.016900	-0.009300	-0.001600	0.005900	0.013300	0.020600	0.028100	0.035400	0.042600	0.049800	0.057100	0.064400	0.071600	0.078700	0.085300	0.091400	0.097100	0.102500	0.107900	0.113600	0.119300	0.125000	0.130400	0.135400	0.139600	0.143000	0.145800	0.148100	0.150200	0.152100	0.154100	0.156300	0.158600	0.161000	0.163400	0.165800	0.168000	0.170100	0.172000	0.173800	0.175100	0.176100	0.176700	0.176800	0.176700	0.176200	0.175500	0.174600	0.173500	0.172400	0.171200	0.169900	0.168500	0.166900	0.165000	0.162700	0.159900	0.156700	0.153000	0.148700	0.143700	0.138200	0.132300	0.125700	0.118700	0.111500	0.104100	0.096700	0.089100	0.081600	0.074100	0.066400	0.058900	0.051300	0.043800	0.036300	0.028800	0.021300	0.013800	0.006400	-0.001100	-0.008600	-0.015800	-0.023300	-0.030800	-0.038200	-0.045500	-0.052300	-0.058500	-0.064400	-0.070200	-0.076000	-0.081800	-0.087900	-0.094000	-0.099800	-0.105000	-0.109900	-0.115100	-0.121000	-0.126600
-0.383100	-0.381100	-0.376700	-0.371500	-0.365900	-0.359800	-0.353100	-0.345900	-0.338200	-0.329800	-0.320900	-0.311700	-0.302500	-0.293400	-0.284600	-0.276200	-0.268100	-0.260300	-0.252500	-0.244900	-0.237400	-0.230000	-0.222700	-0.215400	-0.207900	-0.200500	-0.192900	-0.185500	-0.178000	-0.170600	-0.163100	-0.155600	-0.148100	-0.140500	-0.132700	-0.125600	-0.117400	-0.108300	-0.100200	-0.092500	-0.084700	-0.076900	-0.069400	-0.061700	-0.054000	-0.046300	-0.038500	-0.030700	-0.022900	-0.015000	-0.007400	0.000200	0.008000	0.015600	0.023100	0.030500	0.038100	0.045600	0.053000	0.060500	0.067900	0.075200	0.082200	0.089000	0.095400	0.101500	0.107400	0.113400	0.119300	0.125200	0.130900	0.136300	0.141100	0.145500	0.149300	0.152400	0.155200	0.157800	0.160300	0.162800	0.165300	0.168000	0.170600	0.173200	0.175800	0.178300	0.180600	0.182700	0.184500	0.186100	0.187300	0.188100	0.188500	0.188600	0.188400	0.187800	0.186900	0.185800	0.184500	0.182900	0.181300	0.179400	0.177400	0.175300	0.172900	0.170400	0.167600	0.164500	0.160800	0.156300	0.150500	0.143600	0.136400	0.129200	0.121800	0.114300	0.106600	0.098900	0.091200	0.083400	0.075700	0.067900	0.060300	0.052500	0.044800	0.037100	0.029400	0.021800	0.014100	0.006500	-0.001200	-0.008800	-0.016400	-0.024100	-0.031700	-0.039400	-0.047000	-0.053900	-0.060000	-0.066100	-0.072300	-0.078400	-0.084600	-0.090900	-0.096900	-0.102800	-0.108600	-0.114800	-0.121100	-0.127000	-0.131800
-0.377900	-0.375100	-0.369800	-0.363900	-0.357500	-0.350600	-0.343300	-0.335600	-0.327400	-0.318800	-0.309800	-0.300800	-0.291900	-0.283300	-0.275200	-0.267600	-0.260300	-0.253400	-0.246300	-0.239100	-0.231800	-0.224400	-0.216900	-0.209400	-0.201900	-0.194400	-0.186800	-0.179300	-0.171700	-0.164200	-0.156600	-0.149000	-0.141400	-0.133600	-0.125800	-0.118300	-0.110200	-0.102500	-0.094500	-0.086700	-0.078900	-0.071200	-0.063500	-0.055800	-0.048100	-0.040200	-0.032400	-0.024500	-0.016700	-0.008600	-0.001000	0.006700	0.014500	0.022100	0.029500	0.037000	0.044700	0.052200	0.059700	0.067300	0.074700	0.081900	0.088800	0.095400	0.101700	0.107800	0.113900	0.120000	0.126000	0.131800	0.137200	0.142200	0.146600	0.150500	0.154000	0.157100	0.160000	0.162800	0.165700	0.168500	0.171400	0.174300	0.177100	0.179800	0.182500	0.184900	0.187200	0.189200	0.191000	0.192400	0.193500	0.194200	0.194500	0.194500	0.194200	0.193600	0.192700	0.191500	0.190100	0.188500	0.186600	0.184500	0.182200	0.179700	0.177000	0.174200	0.171200	0.167900	0.164000	0.159200	0.153000	0.145600	0.137800	0.130300	0.122800	0.115100	0.107300	0.099500	0.091700	0.083900	0.076100	0.068300	0.060500	0.052700	0.045000	0.037100	0.029400	0.021700	0.014000	0.006300	-0.001500	-0.009100	-0.016800	-0.024600	-0.032300	-0.040000	-0.047800	-0.054800	-0.060900	-0.067000	-0.073200	-0.079500	-0.086000	-0.092300	-0.098300	-0.104200	-0.110300	-0.116700	-0.123300	-0.129100	-0.134000
-0.371300	-0.366700	-0.359400	-0.351900	-0.344000	-0.335900	-0.327800	-0.319600	-0.311400	-0.303500	-0.295900	-0.288700	-0.281700	-0.274600	-0.267400	-0.260200	-0.253000	-0.245900	-0.238800	-0.231400	-0.224000	-0.216500	-0.208800	-0.201100	-0.193500	-0.185900	-0.178200	-0.170600	-0.162900	-0.155200	-0.147400	-0.139500	-0.131600	-0.123700	-0.115800	-0.108100	-0.099900	-0.092500	-0.084500	-0.076700	-0.068800	-0.060900	-0.053100	-0.045300	-0.037300	-0.029500	-0.021500	-0.013500	-0.005500	0.002700	0.010200	0.018000	0.025800	0.033400	0.041000	0.048700	0.056400	0.064000	0.071600	0.079000	0.086300	0.093300	0.100100	0.106700	0.113200	0.119500	0.125800	0.131900	0.137700	0.143100	0.148100	0.152600	0.156500	0.160200	0.163700	0.167000	0.170200	0.173400	0.176700	0.179800	0.183000	0.186100	0.189000	0.191700	0.194400	0.196700	0.198900	0.200900	0.202500	0.203800	0.204800	0.205400	0.205800	0.205900	0.205600	0.205200	0.204400	0.203300	0.202000	0.200500	0.198600	0.196300	0.193700	0.190700	0.187300	0.183400	0.179100	0.174300	0.168900	0.162800	0.155900	0.148300	0.140300	0.132500	0.124800	0.116800	0.109000	0.101000	0.093100	0.085200	0.077300	0.069400	0.061500	0.053600	0.045700	0.037800	0.030000	0.022100	0.014200	0.006500	-0.001400	-0.009200	-0.016900	-0.024900	-0.032600	-0.040600	-0.048500	-0.055700	-0.061900	-0.068000	-0.074300	-0.081000	-0.087700	-0.094300	-0.100600	-0.106600	-0.112600	-0.118500	-0.124700	-0.131100	-0.136900
-0.369200	-0.363900	-0.355900	-0.347700	-0.339400	-0.330900	-0.322600	-0.314400	-0.306500	-0.299100	-0.292300	-0.285900	-0.279600	-0.273000	-0.266100	-0.258800	-0.251300	-0.243800	-0.236300	-0.228800	-0.221200	-0.213600	-0.205900	-0.198200	-0.190500	-0.182800	-0.175100	-0.167400	-0.159600	-0.151800	-0.143900	-0.135900	-0.127900	-0.120000	-0.112100	-0.104300	-0.096100	-0.088200	-0.080100	-0.072200	-0.064300	-0.056400	-0.048400	-0.040600	-0.032600	-0.024700	-0.016600	-0.008600	-0.000600	0.007600	0.015100	0.023000	0.030800	0.038500	0.046100	0.053800	0.061600	0.069200	0.076800	0.084100	0.091300	0.098300	0.105100	0.111800	0.118300	0.124700	0.130900	0.136900	0.142500	0.147700	0.152500	0.156900	0.161000	0.164800	0.168400	0.171900	0.175300	0.178700	0.182100	0.185200	0.188400	0.191500	0.194400	0.197200	0.199800	0.202100	0.204200	0.206100	0.207800	0.209100	0.210100	0.210700	0.211100	0.211200	0.211000	0.210600	0.209800	0.208800	0.207500	0.206100	0.204200	0.201800	0.199100	0.195800	0.192000	0.187600	0.182700	0.177100	0.170900	0.164200	0.157000	0.149400	0.141500	0.133600	0.125800	0.117800	0.109900	0.101800	0.093900	0.086000	0.078000	0.070100	0.062100	0.054100	0.046200	0.038300	0.030300	0.022400	0.014500	0.006700	-0.001200	-0.009000	-0.016800	-0.024800	-0.032700	-0.040700	-0.048600	-0.056000	-0.062300	-0.068400	-0.074700	-0.081600	-0.088400	-0.095100	-0.101600	-0.107800	-0.113600	-0.119100	-0.125100	-0.131800	-0.138100
-0.365300	-0.359400	-0.350800	-0.342100	-0.333300	-0.324600	-0.316300	-0.308400	-0.301000	-0.294300	-0.288000	-0.281700	-0.275200	-0.268400	-0.261400	-0.254100	-0.246600	-0.239000	-0.231300	-0.223500	-0.215700	-0.207900	-0.200200	-0.192500	-0.184600	-0.176800	-0.169000	-0.161100	-0.153100	-0.145000	-0.137000	-0.128900	-0.120800	-0.112800	-0.104700	-0.096900	-0.088600	-0.080500	-0.072200	-0.064200	-0.056100	-0.048100	-0.040100	-0.032000	-0.024000	-0.016000	-0.007800	0.000300	0.008200	0.016400	0.024000	0.031800	0.039700	0.047500	0.055200	0.063100	0.070900	0.078500	0.086000	0.093200	0.100400	0.107600	0.114400	0.121100	0.127400	0.133600	0.139400	0.145000	0.150200	0.155200	0.160000	0.164500	0.168800	0.173000	0.177000	0.180900	0.184700	0.188400	0.192000	0.195400	0.198600	0.201700	0.204700	0.207400	0.209900	0.212200	0.214300	0.216100	0.217600	0.218900	0.219900	0.220600	0.221000	0.221100	0.220800	0.220300	0.219500	0.218300	0.216700	0.214900	0.212600	0.209800	0.206600	0.202700	0.198200	0.193100	0.187500	0.181300	0.174400	0.167100	0.159500	0.151600	0.143600	0.135600	0.127700	0.119500	0.111500	0.103400	0.095300	0.087300	0.079200	0.071100	0.063200	0.055100	0.047000	0.039000	0.031000	0.022900	0.014900	0.007000	-0.001100	-0.009000	-0.016900	-0.024900	-0.033000	-0.041100	-0.049200	-0.056600	-0.063000	-0.069500	-0.076200	-0.083100	-0.090000	-0.097000	-0.103800	-0.110100	-0.115900	-0.121600	-0.127800	-0.134800	-0.140900
-0.364300	-0.358300	-0.349600	-0.340800	-0.332000	-0.323400	-0.315000	-0.307200	-0.300000	-0.293400	-0.287100	-0.280500	-0.273600	-0.266500	-0.259400	-0.252100	-0.244600	-0.237100	-0.229400	-0.221600	-0.213700	-0.205900	-0.198100	-0.190300	-0.182400	-0.174500	-0.166600	-0.158600	-0.150500	-0.142300	-0.134200	-0.126100	-0.118000	-0.109900	-0.101800	-0.093900	-0.085500	-0.077500	-0.069200	-0.061100	-0.052900	-0.044800	-0.036700	-0.028700	-0.020600	-0.012500	-0.004200	0.003900	0.011700	0.019900	0.027600	0.035500	0.043400	0.051300	0.059000	0.066900	0.074800	0.082400	0.089800	0.097100	0.104300	0.111500	0.118300	0.124900	0.131200	0.137200	0.142900	0.148400	0.153600	0.158600	0.163400	0.168000	0.172500	0.176800	0.181000	0.185000	0.189000	0.192800	0.196300	0.199800	0.203100	0.206200	0.209200	0.211900	0.214400	0.216700	0.218800	0.220600	0.222200	0.223500	0.224500	0.225200	0.225600	0.225700	0.225400	0.224800	0.223900	0.222600	0.220900	0.218800	0.216200	0.213100	0.209500	0.205300	0.200500	0.195200	0.189300	0.182900	0.176000	0.168600	0.160800	0.152700	0.144600	0.136500	0.128500	0.120300	0.112200	0.104100	0.095900	0.087800	0.079700	0.071600	0.063500	0.055400	0.047300	0.039200	0.031200	0.023000	0.015000	0.006900	-0.001100	-0.009100	-0.017200	-0.025200	-0.033400	-0.041500	-0.049700	-0.057100	-0.063600	-0.070200	-0.077100	-0.084100	-0.091100	-0.098100	-0.104900	-0.111300	-0.117400	-0.123500	-0.130000	-0.136900	-0.142700
-0.365600	-0.359500	-0.350700	-0.341700	-0.332800	-0.324000	-0.315500	-0.307600	-0.300200	-0.293500	-0.287100	-0.280400	-0.273300	-0.266000	-0.258700	-0.251300	-0.243700	-0.236000	-0.228200	-0.220300	-0.212300	-0.204400	-0.196500	-0.188500	-0.180400	-0.172400	-0.164300	-0.156100	-0.147900	-0.139600	-0.131300	-0.123200	-0.114900	-0.106700	-0.098400	-0.090400	-0.081800	-0.073700	-0.065300	-0.057100	-0.048800	-0.040500	-0.032300	-0.024100	-0.015900	-0.007600	0.000600	0.008800	0.016800	0.025000	0.032800	0.040900	0.048900	0.056900	0.064800	0.072800	0.080700	0.088500	0.096000	0.103200	0.110300	0.117200	0.123800	0.130400	0.136800	0.143000	0.149000	0.154800	0.160300	0.165600	0.170500	0.175300	0.179800	0.184300	0.188500	0.192600	0.196600	0.200400	0.204000	0.207400	0.210700	0.213700	0.216700	0.219400	0.221900	0.224300	0.226500	0.228500	0.230200	0.231700	0.232900	0.233800	0.234400	0.234600	0.234400	0.233800	0.232700	0.231200	0.229100	0.226600	0.223400	0.219800	0.215600	0.210700	0.205400	0.199400	0.193000	0.186100	0.178700	0.171100	0.163000	0.154700	0.146400	0.138200	0.130000	0.121700	0.113500	0.105200	0.097000	0.088700	0.080500	0.072200	0.064000	0.055800	0.047600	0.039300	0.031100	0.022800	0.014700	0.006400	-0.001700	-0.009900	-0.018100	-0.026300	-0.034500	-0.042800	-0.051200	-0.058600	-0.065200	-0.072000	-0.079200	-0.086300	-0.093600	-0.100700	-0.107500	-0.114200	-0.121000	-0.128200	-0.135300	-0.141800	-0.147000
-0.367100	-0.361000	-0.352200	-0.343000	-0.334000	-0.325200	-0.316600	-0.308400	-0.300900	-0.294100	-0.287600	-0.280900	-0.274000	-0.266700	-0.259300	-0.251800	-0.244100	-0.236200	-0.228300	-0.220400	-0.212400	-0.204400	-0.196300	-0.188200	-0.180100	-0.172000	-0.163800	-0.155500	-0.147200	-0.138900	-0.130600	-0.122400	-0.114000	-0.105700	-0.097400	-0.089300	-0.080600	-0.072400	-0.064000	-0.055700	-0.047300	-0.039000	-0.030800	-0.022500	-0.014200	-0.005800	0.002500	0.010700	0.018800	0.027100	0.034900	0.043100	0.051200	0.059100	0.067200	0.075200	0.083200	0.091100	0.098700	0.105900	0.112800	0.119500	0.126000	0.132600	0.139100	0.145600	0.151900	0.158000	0.163700	0.169100	0.174100	0.178900	0.183600	0.188000	0.192200	0.196300	0.200200	0.203900	0.207400	0.210800	0.214000	0.217100	0.220000	0.222700	0.225300	0.227700	0.230000	0.232000	0.233900	0.235600	0.237000	0.238000	0.238700	0.239000	0.238800	0.238200	0.237100	0.235500	0.233300	0.230500	0.227100	0.223200	0.218700	0.213500	0.207900	0.201500	0.194800	0.187600	0.180000	0.172200	0.163900	0.155700	0.147300	0.139000	0.130700	0.122400	0.114100	0.105800	0.097500	0.089100	0.080800	0.072500	0.064100	0.055900	0.047600	0.039300	0.031000	0.022600	0.014400	0.006100	-0.002100	-0.010400	-0.018700	-0.026900	-0.035300	-0.043600	-0.052000	-0.059600	-0.066200	-0.073000	-0.080300	-0.087600	-0.094900	-0.102000	-0.108800	-0.115700	-0.123000	-0.130800	-0.138100	-0.144400	-0.149400
[M]
8.760800	8.167700	7.834000	7.597800	7.398000	7.221700	7.057600	6.900400	6.744000	6.583000	6.415400	6.240100	6.056200	5.867500	5.677400	5.488100	5.300800	5.114600	4.930700	4.748600	4.570800	4.396700	4.225200	4.056800	3.891600	3.730100	3.571700	3.417100	3.265300	3.117100	2.971700	2.830300	2.692000	2.557800	2.426500	2.303400	2.175800	2.057600	1.939700	1.826700	1.715400	1.606300	1.500200	1.395900	1.295800	1.200800	1.112700	1.033300	0.960000	0.909500	0.807100	0.740000	0.682600	0.612700	0.544000	0.483400	0.428800	0.377800	0.328800	0.282700	0.240000	0.201000	0.165600	0.133800	0.105300	0.080100	0.058300	0.039900	0.025100	0.013900	0.006300	0.001600	-0.001400	-0.003700	-0.006900	-0.012300	-0.020900	-0.032600	-0.046800	-0.063300	-0.082000	-0.103100	-0.126700	-0.152700	-0.181000	-0.212000	-0.245400	-0.281400	-0.320000	-0.360900	-0.404300	-0.450100	-0.498300	-0.548900	-0.602000	-0.657500	-0.715300	-0.775600	-0.838400	-0.903700	-0.971500	-1.041900	-1.114800	-1.189900	-1.267400	-1.346700	-1.428100	-1.511600	-1.597800	-1.687300	-1.779900	-1.875000	-1.972000	-2.071500	-2.173700	-2.278400	-2.384700	-2.494500	-2.606000	-2.720300	-2.836600	-2.955500	-3.077200	-3.200900	-3.327500	-3.456800	-3.588200	-3.723000	-3.860300	-3.999500	-4.142800	-4.287700	-4.435300	-4.580700	-4.723300	-4.864900	-5.006300	-5.150400	-5.294200	-5.441400	-5.594200	-5.752700	-5.918900	-6.095300	-6.286600	-6.493300	-6.707100	-6.916900	-7.119500	-7.305800	-7.436300
17.857800	18.763600	18.659300	18.202800	17.575100	16.851900	16.078700	15.298800	14.546800	13.853400	13.243900	12.721200	12.262300	11.846100	11.455700	11.074500	10.688800	10.281800	9.852900	9.405700	8.952000	8.496800	8.044200	7.598400	7.162900	6.742900	6.344800	5.967800	5.606900	5.256100	4.912900	4.579500	4.249300	3.927000	3.618200	3.345900	3.083800	2.868300	2.698400	2.594700	2.499600	2.462700	2.582000	2.774600	2.949500	3.104300	3.663700	4.341300	4.835100	4.995500	4.851700	4.614700	4.386900	4.238800	4.191400	4.219500	4.293700	4.387600	4.484900	4.581200	4.669900	4.744400	4.798200	4.826000	4.830400	4.815400	4.785000	4.742500	4.691200	4.636900	4.585000	4.535400	4.485400	4.433000	4.376400	4.315500	4.250300	4.181300	4.109400	4.035300	3.959600	3.882900	3.805800	3.728900	3.652900	3.579300	3.510400	3.445200	3.381700	3.318900	3.255700	3.190500	3.118000	3.035600	2.941000	2.832400	2.707300	2.563800	2.407300	2.245700	2.083500	1.924400	1.772000	1.629200	1.487200	1.333900	1.164500	0.981000	0.784900	0.579000	0.360400	0.113900	-0.174500	-0.518700	-0.866500	-1.246900	-1.618500	-2.044100	-2.382700	-2.832800	-3.087700	-3.421900	-3.535300	-3.879700	-4.645300	-5.084300	-5.663600	-6.222100	-6.693600	-7.157600	-7.645400	-8.177400	-8.751400	-9.344800	-9.946800	-10.562300	-11.193000	-11.844300	-12.496600	-13.165900	-13.860500	-14.575300	-15.307500	-16.027200	-16.685400	-17.254700	-17.737000	-18.173600	-18.699300	-19.443500	-21.387900
22.144200	23.275900	23.138100	22.563100	21.776800	20.870800	19.900900	18.919800	17.969300	17.087400	16.308300	15.638900	15.052000	14.521100	14.024300	13.539600	13.050600	12.536700	11.996700	11.435000	10.865600	10.294200	9.725700	9.165000	8.616700	8.087400	7.584700	7.108500	6.653200	6.212900	5.785000	5.372800	4.967500	4.573500	4.195400	3.859100	3.531600	3.262500	3.056300	2.940200	2.839200	2.815900	3.008300	3.309300	3.587900	3.855300	4.636100	5.581700	6.302200	6.591400	6.504400	6.276300	6.042900	5.903800	5.885000	5.955200	6.080300	6.230000	6.385200	6.539200	6.683100	6.807000	6.901400	6.959300	6.984100	6.981400	6.956900	6.915400	6.861500	6.803100	6.747000	6.693400	6.639100	6.581900	6.520100	6.453400	6.382000	6.306300	6.226700	6.143700	6.057900	5.969700	5.879300	5.787300	5.694300	5.601700	5.512900	5.426900	5.342100	5.257700	5.173100	5.086800	4.992400	4.885900	4.764100	4.624000	4.462100	4.275300	4.070500	3.857700	3.643300	3.432500	3.230900	3.042800	2.857100	2.658600	2.440300	2.203000	1.946700	1.673000	1.377800	1.043800	0.656300	0.200300	-0.259500	-0.765600	-1.256900	-1.810500	-2.250700	-2.829500	-3.157400	-3.584200	-3.719200	-4.154600	-5.111100	-5.685900	-6.456000	-7.200500	-7.833500	-8.452200	-9.101900	-9.809400	-10.573800	-11.367700	-12.179000	-13.012100	-13.868600	-14.754800	-15.643600	-16.554500	-17.495800	-18.457700	-19.434500	-20.390100	-21.268000	-22.039200	-22.709300	-23.327700	-24.051700	-25.036600	-27.561200
29.668000	29.158200	28.360400	27.514500	26.632700	25.724200	24.792200	23.849300	22.898300	21.950600	21.038000	20.183200	19.378100	18.613700	17.878900	17.157800	16.445700	15.731200	15.015000	14.296400	13.585000	12.878800	12.176700	11.481500	10.797100	10.128900	9.478100	8.851100	8.248000	7.675500	7.135400	6.633700	6.162300	5.714300	5.275400	4.853500	4.402000	4.006400	3.686600	3.477200	3.307800	3.222500	3.402200	3.760300	4.110500	4.554200	5.368400	6.408100	7.355100	7.994800	8.331100	8.496700	8.570300	8.642000	8.752100	8.896800	9.070000	9.264800	9.474300	9.690500	9.901900	10.095000	10.255700	10.374500	10.456000	10.507100	10.535200	10.547700	10.551700	10.554500	10.561900	10.573600	10.587500	10.602100	10.615300	10.625400	10.630400	10.628700	10.618300	10.597600	10.564800	10.518000	10.455300	10.374800	10.274900	10.154300	10.016000	9.863700	9.700700	9.530800	9.357500	9.183500	9.005900	8.818900	8.616800	8.394200	8.145400	7.865600	7.558300	7.230900	6.891800	6.549000	6.211200	5.885900	5.567200	5.245600	4.909800	4.549400	4.151900	3.704400	3.202100	2.645500	2.046100	1.408500	0.768200	0.059200	-0.619500	-1.309500	-1.905200	-2.585100	-3.073400	-3.625200	-3.906000	-4.445900	-5.270500	-6.040100	-7.060200	-8.072700	-9.006500	-9.903500	-10.835200	-11.821800	-12.875600	-13.977500	-15.124600	-16.316400	-17.548500	-18.829900	-20.120700	-21.437200	-22.775000	-24.106600	-25.419400	-26.703900	-27.965600	-29.223900	-30.483400	-31.739200	-33.006900	-34.319800	-36.698200
35.869000	33.205200	31.589600	30.457700	29.531400	28.707400	27.925200	27.146700	26.329100	25.452700	24.532900	23.597000	22.662600	21.744900	20.846800	19.959500	19.089600	18.236500	17.408500	16.601200	15.820100	15.057700	14.308200	13.569300	12.839900	12.118800	11.400600	10.693400	10.005100	9.351700	8.743800	8.197600	7.718100	7.283700	6.849900	6.396800	5.864800	5.360000	4.900000	4.510600	4.159300	3.841300	3.741100	3.826000	3.894200	4.161500	4.488100	4.936200	5.595100	6.461600	7.338200	8.129700	8.768400	9.266900	9.658900	9.979700	10.259600	10.530500	10.811800	11.096600	11.376900	11.642300	11.882200	12.091300	12.276400	12.444000	12.601800	12.757700	12.918500	13.085600	13.259600	13.439800	13.626200	13.818600	14.014300	14.208500	14.395500	14.570400	14.728200	14.863900	14.972500	15.048800	15.087600	15.083700	15.031500	14.925900	14.766500	14.561800	14.321100	14.054200	13.770600	13.479800	13.187600	12.890100	12.582100	12.258700	11.914500	11.544600	11.143700	10.709300	10.247600	9.765600	9.271100	8.773100	8.278900	7.796500	7.314900	6.811700	6.261800	5.636400	4.933700	4.180800	3.407300	2.627100	1.838600	1.020300	0.229400	-0.487100	-1.177800	-1.809600	-2.439400	-3.043700	-3.582500	-4.138300	-4.364700	-5.132100	-6.048500	-7.090900	-8.202600	-9.326800	-10.463000	-11.597800	-12.779900	-14.029500	-15.367600	-16.786300	-18.268000	-19.811400	-21.355600	-22.908300	-24.462200	-25.988900	-27.478500	-28.962100	-30.540700	-32.286700	-34.200100	-36.187100	-38.014700	-39.532500	-40.644000
41.283100	43.282600	42.674900	41.321700	39.662900	37.835000	35.938500	34.068400	32.309200	30.741500	29.401700	28.270900	27.310300	26.473900	25.712200	24.966500	24.184800	23.323000	22.400800	21.437500	20.465000	19.499800	18.559800	17.662400	16.807700	15.990900	15.202600	14.439000	13.689200	12.956300	12.243300	11.561200	10.911900	10.305500	9.742700	9.244900	8.743400	8.270700	7.767300	7.231600	6.643100	6.064200	5.570100	5.187500	4.777800	4.151200	4.263300	4.222700	4.207600	4.484000	4.802900	5.196700	5.714800	6.371500	7.131900	7.942600	8.729400	9.450600	10.103300	10.689700	11.215100	11.684900	12.107900	12.494200	12.855700	13.200800	13.539200	13.874900	14.208900	14.540300	14.870500	15.198700	15.522400	15.837500	16.139100	16.423500	16.685900	16.923600	17.134400	17.316700	17.468400	17.587200	17.671300	17.718200	17.725600	17.691300	17.612900	17.488200	17.315600	17.098200	16.840300	16.546700	16.222100	15.871100	15.498300	15.107900	14.701400	14.276800	13.831700	13.363500	12.870400	12.349900	11.801100	11.228800	10.637800	10.034800	9.423800	8.808300	8.188600	7.554300	6.900300	6.209700	5.419800	4.461600	3.482600	2.641500	1.767900	0.901300	0.125100	-0.667700	-1.315500	-1.999800	-2.617600	-3.249600	-3.820000	-4.426200	-4.651500	-5.499800	-6.506600	-7.779900	-9.031100	-10.222600	-11.444400	-12.759100	-14.195900	-15.748300	-17.386200	-19.073200	-20.710400	-22.327500	-23.987100	-25.729800	-27.570000	-29.451100	-31.324400	-33.124300	-34.873500	-36.607600	-38.397600	-40.460000	-42.771600
41.598700	39.904700	37.898600	36.213000	34.847400	33.711900	32.703000	31.764000	30.835300	29.862600	28.842100	27.806700	26.780500	25.782700	24.810200	23.844400	22.882700	21.927500	20.998800	20.101900	19.232600	18.354100	17.466100	16.618700	15.835500	15.111300	14.325400	13.554900	12.824700	12.203900	11.683500	11.217900	10.679600	10.094300	9.521700	9.003300	8.464700	7.941100	7.351800	6.695700	6.106400	5.653600	4.947000	4.666800	4.883100	4.578100	4.537800	4.838800	5.212700	5.508300	5.813100	6.255300	6.804700	7.423300	8.123500	8.918600	9.759800	10.578000	11.322100	11.994800	12.610700	13.179400	13.710300	14.212600	14.695700	15.164000	15.624100	16.083100	16.548500	17.019900	17.491000	17.951300	18.391300	18.801400	19.171800	19.494300	19.766400	19.989300	20.164100	20.291800	20.373200	20.408700	20.399300	20.345200	20.247100	20.105400	19.921000	19.694500	19.428600	19.126300	18.790600	18.424500	18.031200	17.613300	17.173900	16.714900	16.234000	15.727600	15.192000	14.622800	14.016600	13.369600	12.682200	11.968600	11.243000	10.521900	9.817900	9.143600	8.487000	7.786700	6.980400	6.021700	4.996600	4.022300	3.106800	2.224200	1.368900	0.677100	-0.033800	-0.710000	-1.432000	-2.102300	-2.672200	-3.292100	-3.892700	-4.774400	-4.734000	-5.542200	-6.608400	-7.823300	-9.134100	-10.422300	-11.734300	-13.148600	-14.699900	-16.350900	-18.057400	-19.826000	-21.609700	-23.440100	-25.332400	-27.264400	-29.209800	-31.144600	-33.068800	-35.023800	-37.056700	-39.165300	-41.383900	-43.677300	-45.593600
43.865000	42.884100	41.472600	40.039800	38.605700	37.193700	35.821300	34.525200	33.314200	32.169800	31.083500	30.054800	29.064500	28.090200	27.108700	26.110400	25.115600	24.132200	23.170800	22.227200	21.308800	20.409500	19.526900	18.662900	17.817900	16.981200	16.136100	15.296500	14.649000	13.943100	13.270000	12.734200	12.223400	11.702000	11.096000	10.490700	9.868100	9.308100	8.750600	8.179900	7.569100	6.967500	6.336900	5.851700	5.448100	5.197100	4.972300	4.804300	5.074100	5.419200	5.692800	5.991400	6.327800	6.705300	7.129300	7.643400	8.329500	9.188100	10.119700	11.024300	11.865300	12.650000	13.386700	14.085500	14.759800	15.415100	16.056900	16.692200	17.327600	17.966800	18.611100	19.246500	19.860700	20.440100	20.970900	21.441200	21.837700	22.157600	22.404500	22.582700	22.695900	22.747900	22.742000	22.681900	22.571100	22.413100	22.211700	21.970400	21.692300	21.379700	21.033600	20.655800	20.248000	19.811400	19.347600	18.858100	18.343500	17.800600	17.225100	16.611900	15.957300	15.256700	14.506500	13.705700	12.865100	12.010000	11.161200	10.339500	9.562100	8.818200	7.982000	6.892500	5.669600	4.623400	3.667900	2.707500	1.833600	0.986600	0.272700	-0.362500	-1.044200	-1.696100	-2.341100	-3.007000	-3.666200	-4.277900	-5.019700	-5.224000	-6.076400	-7.128500	-8.503800	-9.923000	-11.269200	-12.702300	-14.327700	-16.102900	-17.971400	-19.929200	-21.905700	-23.917900	-25.961100	-28.000700	-30.024500	-32.030800	-34.111500	-36.384300	-38.874600	-41.482300	-43.905300	-45.939600	-47.508400
46.114400	45.793600	45.132200	44.378600	43.553900	42.662700	41.703100	40.678900	39.580400	38.399900	37.155600	35.879100	34.589300	33.303400	32.038500	30.807000	29.645500	28.566300	27.556600	26.580800	25.620000	24.665500	23.718800	22.786200	21.876000	20.996400	20.133700	19.263300	18.375700	17.514600	16.698600	15.887500	15.035500	14.383300	13.961400	13.317800	12.715600	12.136500	11.469700	10.810300	10.163400	9.537500	8.941400	8.360800	7.773100	7.128500	6.409800	5.873700	5.582800	5.252500	4.952400	5.111900	5.497900	5.720500	5.945500	6.258600	6.639300	7.079600	7.580900	8.159800	8.847400	9.657600	10.560700	11.519900	12.504200	13.474300	14.394800	15.256300	16.071800	16.852000	17.613200	18.366300	19.119600	19.864000	20.585100	21.271300	21.908400	22.485300	22.989400	23.415100	23.764200	24.039400	24.243300	24.378400	24.447000	24.451700	24.394800	24.278800	24.106500	23.880600	23.603800	23.278600	22.907800	22.493500	22.038300	21.544600	21.014700	20.450900	19.855300	19.229100	18.572500	17.882100	17.155700	16.392800	15.590600	14.749600	13.866700	12.940900	11.968200	10.939700	9.859500	8.733300	7.552100	6.320000	5.140300	4.108300	3.134000	2.152200	1.282000	0.521300	-0.226400	-0.809600	-1.476700	-2.209600	-2.867300	-3.563000	-4.237400	-4.949600	-5.340000	-6.004200	-6.907700	-8.394700	-9.859900	-11.289100	-12.823600	-14.540100	-16.475100	-18.596800	-20.774900	-22.984200	-25.230800	-27.509500	-29.835700	-32.204200	-34.621200	-37.029300	-39.335500	-41.587000	-43.907700	-46.590000	-49.746800
47.403100	47.045400	46.380300	45.637900	44.832300	43.959400	43.008300	41.974400	40.841900	39.602300	38.280000	36.916500	35.541000	34.181700	32.865900	31.612800	30.458700	29.400600	28.421300	27.483700	26.569700	25.662500	24.753800	23.845800	22.949700	22.077600	21.218600	20.361600	19.471300	18.611700	17.763200	16.900700	16.006100	15.298700	14.835300	14.186300	13.772300	13.980800	13.772800	13.131900	12.361000	11.667100	11.043000	10.397100	9.741600	9.046300	8.329800	7.663100	7.015900	6.334900	5.764100	5.497400	5.388000	5.316000	5.542700	5.854100	6.047200	6.291900	6.603400	6.990100	7.459900	8.029300	8.755700	9.641800	10.618500	11.615300	12.606300	13.588500	14.568500	15.544500	16.515700	17.475700	18.419200	19.332800	20.202500	21.024600	21.793100	22.504800	23.153100	23.735300	24.252200	24.703800	25.090000	25.410100	25.663200	25.848800	25.965800	26.013800	25.992200	25.900900	25.739800	25.509100	25.210300	24.847100	24.423400	23.942800	23.409100	22.826500	22.199100	21.530000	20.822400	20.076300	19.293400	18.478000	17.629300	16.748300	15.831600	14.874400	13.856400	12.749200	11.558000	10.299500	8.949900	7.522700	6.186500	4.981000	3.849800	2.859200	1.928900	1.062300	0.290700	-0.390800	-1.035900	-1.713100	-2.365600	-3.092800	-3.767300	-4.621700	-5.194800	-5.855100	-6.310700	-7.387000	-8.801400	-10.398800	-11.954600	-13.670700	-15.614200	-17.810300	-20.130800	-22.499800	-24.881900	-27.305900	-29.835200	-32.496000	-35.252600	-37.981700	-40.483100	-42.757600	-45.043400	-47.640500	-51.809000
47.866800	47.506700	46.794200	45.988500	45.110600	44.165600	43.151700	42.073500	40.921600	39.689000	38.396200	37.077800	35.754700	34.446600	33.173200	31.949900	30.810200	29.747900	28.755400	27.808700	26.901300	26.014700	25.132300	24.248900	23.371400	22.507700	21.656600	20.815100	19.971500	19.130800	18.289200	17.448800	16.601900	15.882300	15.308700	14.628000	14.239700	14.663700	14.594800	13.980600	13.190400	12.483000	11.848400	11.164900	10.449100	9.776900	9.139200	8.448600	7.726000	7.005100	6.400800	5.911300	5.518900	5.313000	5.537500	5.858000	6.007400	6.227400	6.541500	6.908900	7.299100	7.737300	8.333300	9.124300	10.033300	10.981600	11.952800	12.949500	13.973200	15.016000	16.068200	17.111500	18.131500	19.112800	20.041700	20.917000	21.734800	22.495600	23.197400	23.839900	24.421800	24.941500	25.397900	25.789300	26.114100	26.370500	26.556800	26.671400	26.712500	26.678700	26.568600	26.380900	26.116500	25.779400	25.374200	24.905300	24.376900	23.793500	23.158900	22.476300	21.749200	20.978300	20.164700	19.311900	18.420700	17.495500	16.535900	15.539800	14.489400	13.357700	12.131900	10.801800	9.361200	7.880200	6.498200	5.213700	4.026100	3.030100	2.111000	1.218400	0.448200	-0.304200	-0.945800	-1.584300	-2.245300	-2.962100	-3.686600	-4.483800	-5.220200	-5.973600	-6.305800	-7.165600	-8.477900	-10.135800	-11.733400	-13.464600	-15.407000	-17.634300	-20.021000	-22.473700	-24.923800	-27.403100	-29.995600	-32.749700	-35.633600	-38.520000	-41.183900	-43.598200	-45.970400	-48.531600	-52.752900
48.583800	48.369500	47.827900	47.191800	46.485700	45.715800	44.882800	43.991400	43.033700	42.001000	40.905000	39.766900	38.596100	37.400100	36.186100	34.958100	33.746300	32.563200	31.434800	30.370000	29.387600	28.468800	27.584400	26.717200	25.861000	25.017300	24.193800	23.382000	22.547200	21.692400	20.873000	20.032700	19.207900	18.433300	17.619600	16.812100	16.192400	15.965900	15.489400	14.859000	14.203200	13.579000	12.942700	12.199300	11.385100	10.627800	9.971600	9.263600	8.517600	7.769900	7.105600	6.431700	5.888000	5.615200	5.720900	5.966000	6.084700	6.248600	6.565000	6.912700	7.217200	7.543600	8.018600	8.707600	9.541500	10.436100	11.369100	12.340500	13.349500	14.388500	15.451400	16.521900	17.588200	18.638400	19.660700	20.649800	21.595800	22.494200	23.338500	24.123300	24.839900	25.482300	26.050200	26.542200	26.957500	27.295400	27.554800	27.734600	27.834000	27.852200	27.788500	27.642000	27.413600	27.106800	26.726800	26.278600	25.767100	25.196900	24.572100	23.896500	23.173500	22.401300	21.573900	20.687800	19.737300	18.721600	17.634800	16.473300	15.235400	13.922400	12.549800	11.124300	9.655900	8.179600	6.741100	5.422600	4.240700	3.176200	2.302000	1.422500	0.636300	-0.174100	-0.843800	-1.466700	-2.156400	-2.910600	-3.633400	-4.426400	-5.210600	-6.094500	-6.375700	-7.132300	-8.189800	-9.781100	-11.437500	-13.170000	-15.117100	-17.439700	-19.980200	-22.630900	-25.274600	-27.909900	-30.625900	-33.494800	-36.503800	-39.510300	-42.326700	-45.019200	-47.806100	-50.951900	-54.600500
48.621100	48.464000	48.009900	47.467100	46.858400	46.186900	45.450700	44.650900	43.777200	42.819400	41.787500	40.702400	39.574500	38.412600	37.224800	36.012400	34.799500	33.601900	32.450200	31.357100	30.348600	29.413700	28.525700	27.660100	26.805600	25.969900	25.155100	24.344200	23.501800	22.641900	21.821300	20.953300	20.110800	19.325400	18.475800	17.658700	16.932000	16.309300	15.592500	14.939800	14.333100	13.718400	13.056100	12.296700	11.478200	10.689600	9.996000	9.284400	8.548000	7.788300	7.097300	6.479400	6.032900	5.813300	5.876400	6.066100	6.198000	6.364600	6.676000	7.008900	7.313000	7.670700	8.171000	8.861600	9.687500	10.575700	11.502100	12.465100	13.462800	14.488400	15.539500	16.604000	17.673400	18.738600	19.788400	20.814900	21.805000	22.750500	23.640500	24.466500	25.218400	25.889400	26.479800	26.989000	27.416500	27.762600	28.026400	28.207900	28.306800	28.323000	28.256800	28.107900	27.877400	27.568300	27.185000	26.732000	26.213700	25.634300	24.997500	24.306600	23.565800	22.773400	21.922900	21.010300	20.029000	18.976500	17.845500	16.628700	15.323100	13.932700	12.482000	10.998700	9.510800	8.029900	6.584600	5.309300	4.186600	3.095600	2.226300	1.395900	0.594500	-0.196700	-0.881800	-1.520000	-2.218000	-2.997700	-3.707700	-4.514200	-5.267200	-6.149700	-6.442200	-7.253300	-8.254500	-9.800700	-11.462900	-13.195300	-15.156700	-17.528400	-20.138000	-22.866500	-25.600600	-28.325300	-31.110600	-34.013400	-37.029100	-40.049400	-42.953200	-45.840700	-48.881800	-52.269300	-55.488500
47.896100	47.649800	47.107400	46.481200	45.790200	45.037100	44.219000	43.337300	42.381600	41.342000	40.235000	39.093600	37.941200	36.800700	35.693700	34.627300	33.600400	32.599200	31.619500	30.642000	29.690800	28.787900	27.930600	27.079300	26.218900	25.386700	24.563900	23.718400	22.891500	22.066000	21.221500	20.303500	19.433200	18.697400	18.013700	17.372100	16.696200	15.990300	15.259400	14.572900	13.864100	13.091600	12.303000	11.549900	10.830100	10.119900	9.418000	8.695700	7.968200	7.202500	6.531600	6.250700	6.148800	6.125500	6.256000	6.383500	6.585600	6.858100	7.165400	7.472100	7.862000	8.413600	9.090500	9.856600	10.696100	11.589600	12.535000	13.535500	14.582500	15.661000	16.763200	17.873100	18.978600	20.069300	21.134300	22.165600	23.150600	24.080500	24.942600	25.730200	26.439300	27.067200	27.614600	28.080900	28.465700	28.769300	28.990800	29.130200	29.187500	29.162300	29.055400	28.866800	28.597400	28.248000	27.820100	27.315000	26.734000	26.078600	25.349600	24.547700	23.678800	22.748600	21.762200	20.727000	19.647600	18.532300	17.383300	16.186700	14.906900	13.504800	11.960100	10.312400	8.665700	7.095700	5.696200	4.576900	3.626100	2.574600	1.666200	0.985700	0.164800	-0.523100	-1.214300	-1.885300	-2.574200	-3.371600	-4.109600	-4.883100	-5.652500	-6.426300	-6.681500	-7.639200	-8.754400	-10.321200	-11.961600	-13.715800	-15.723100	-18.169500	-20.875400	-23.669200	-26.507100	-29.383800	-32.310600	-35.265800	-38.253500	-41.335000	-44.567000	-47.962400	-51.406800	-54.611000	-57.199900
47.530300	47.165700	46.485400	45.726200	44.905600	44.028700	43.094800	42.109000	41.064500	39.957500	38.809500	37.654100	36.513200	35.407700	34.358900	33.375300	32.448100	31.550500	30.663100	29.754800	28.847100	27.971100	27.130200	26.290100	25.433500	24.593200	23.763700	22.904900	22.069900	21.251700	20.429200	19.572000	18.732600	18.013600	17.389000	16.815400	16.207200	15.601200	14.933100	14.219700	13.432800	12.585700	11.762500	11.030600	10.355500	9.677400	8.967200	8.240100	7.544300	6.847200	6.292200	6.180700	6.213700	6.277600	6.465100	6.607100	6.841700	7.157700	7.480300	7.816600	8.280300	8.924800	9.675000	10.471100	11.316400	12.216200	13.177900	14.206100	15.289400	16.408000	17.549900	18.695100	19.827800	20.935300	22.005100	23.029200	23.994900	24.894400	25.717700	26.461100	27.124700	27.708400	28.213000	28.638100	28.983400	29.249300	29.435100	29.541000	29.566800	29.512700	29.378900	29.165300	28.872200	28.499400	28.046500	27.513600	26.900400	26.206600	25.431600	24.574300	23.640500	22.638100	21.576700	20.468500	19.322500	18.151800	16.963300	15.745400	14.455900	13.043100	11.471300	9.778100	8.090700	6.522600	5.184000	4.126200	3.224800	2.236400	1.336200	0.685400	-0.117600	-0.765100	-1.455900	-2.117100	-2.800100	-3.602300	-4.353800	-5.110200	-5.901900	-6.682700	-6.872400	-7.888100	-9.037600	-10.612100	-12.263100	-14.027800	-16.035900	-18.518100	-21.269300	-24.088900	-26.955700	-29.868100	-32.833800	-35.822200	-38.840700	-41.979600	-45.326000	-48.856700	-52.382900	-55.508800	-58.092200
47.387100	46.746400	45.745700	44.689900	43.595500	42.475200	41.335000	40.192400	39.054200	37.940100	36.874000	35.863500	34.897300	33.959200	33.042000	32.144400	31.266200	30.394000	29.523400	28.643000	27.775000	26.929700	26.091500	25.270200	24.443100	23.576200	22.743000	21.902400	21.006000	20.158100	19.486800	18.955600	18.279900	17.516300	16.760000	16.105000	15.518800	14.919400	14.190500	13.390700	12.544000	11.714600	10.964200	10.284500	9.591200	8.843200	8.064200	7.361800	6.849100	6.495100	6.399800	6.440000	6.521600	6.657600	6.896100	7.152500	7.411000	7.715200	8.121600	8.633600	9.250600	9.952200	10.704900	11.494300	12.345000	13.272900	14.276300	15.350200	16.482000	17.650200	18.840800	20.032100	21.206300	22.346600	23.435300	24.459400	25.401500	26.254900	27.018300	27.693900	28.284200	28.791600	29.217800	29.564400	29.832400	30.023600	30.139000	30.180100	30.148400	30.045900	29.871800	29.624600	29.302600	28.903600	28.425800	27.866900	27.224900	26.497700	25.682100	24.775800	23.780500	22.699400	21.537500	20.303000	19.000300	17.639700	16.225400	14.768200	13.265200	11.704400	10.094100	8.472000	6.933100	5.581600	4.423500	3.385500	2.448500	1.624300	0.850800	0.094700	-0.605000	-1.259400	-1.956800	-2.528600	-3.212000	-4.032300	-4.769800	-5.544900	-6.336100	-7.405300	-7.383500	-8.434600	-9.434200	-10.929200	-12.676300	-14.434100	-16.365600	-18.931100	-21.794700	-24.703900	-27.613000	-30.504800	-33.459700	-36.547600	-39.781900	-43.070800	-46.363100	-49.716700	-53.156700	-56.717700	-59.984300
47.317400	46.568400	45.444300	44.278600	43.088000	41.888700	40.690200	39.515600	38.379300	37.305400	36.310700	35.385500	34.502600	33.632500	32.756100	31.865000	30.966500	30.062700	29.167200	28.282400	27.425100	26.588100	25.746100	24.922700	24.104200	23.238800	22.400800	21.581000	20.705800	19.880200	19.268000	18.828300	18.196900	17.410600	16.586800	15.871400	15.245200	14.590300	13.806800	12.977500	12.134700	11.345000	10.635600	9.955700	9.227400	8.439800	7.658000	7.022700	6.654300	6.490800	6.580300	6.641200	6.720200	6.874100	7.117300	7.416800	7.682000	7.990300	8.453800	9.043200	9.696500	10.383900	11.118200	11.916600	12.800300	13.773900	14.822800	15.932400	17.088200	18.270000	19.466400	20.657300	21.826800	22.958500	24.033700	25.038200	25.954200	26.776600	27.507400	28.150600	28.708400	29.183300	29.577700	29.893600	30.132800	30.297800	30.390400	30.412600	30.366800	30.254700	30.074400	29.822900	29.497400	29.094300	28.610900	28.044000	27.390200	26.646700	25.809600	24.877200	23.850700	22.730400	21.518500	20.220600	18.838100	17.378900	15.846500	14.263000	12.648000	11.014600	9.399600	7.843800	6.419400	5.201500	4.119200	3.078000	2.137800	1.365800	0.640000	-0.161900	-0.818400	-1.491900	-2.187700	-2.727200	-3.403300	-4.220000	-4.959200	-5.751000	-6.512200	-7.761400	-7.641400	-8.673500	-9.634000	-11.095300	-12.868000	-14.606100	-16.497500	-19.099000	-22.015000	-24.947600	-27.862200	-30.748300	-33.709700	-36.853900	-40.190400	-43.534700	-46.770100	-50.012400	-53.429700	-57.257800	-60.841900
46.760100	45.921100	44.700600	43.456200	42.205800	40.969500	39.761700	38.611500	37.543000	36.560400	35.648000	34.775400	33.911500	33.042300	32.154500	31.233300	30.289600	29.347300	28.443900	27.586000	26.760600	25.936500	25.094700	24.238700	23.401100	22.585400	21.725400	20.953300	20.304500	19.654900	19.010000	18.366700	17.629700	16.867400	16.114100	15.398900	14.646800	13.895500	13.102500	12.287400	11.470500	10.707100	9.969400	9.201600	8.417300	7.660200	7.028300	6.668200	6.628800	6.709600	6.835600	6.928200	7.096000	7.306100	7.550200	7.828000	8.124000	8.541100	9.105300	9.721200	10.339300	11.001400	11.776800	12.688400	13.724000	14.852600	16.038600	17.249200	18.462200	19.661200	20.840300	21.985400	23.086300	24.131700	25.107500	26.003900	26.814000	27.539200	28.182600	28.748100	29.237900	29.654500	30.000500	30.277900	30.488800	30.635700	30.720600	30.746000	30.713900	30.620600	30.460200	30.225700	29.911000	29.509100	29.013900	28.418900	27.717400	26.903000	25.972000	24.927900	23.775900	22.519800	21.165400	19.722300	18.195700	16.597300	14.941000	13.257700	11.576000	9.919300	8.336500	6.878100	5.609200	4.545800	3.521300	2.521000	1.716300	0.926900	0.161000	-0.575700	-1.231200	-1.914600	-2.582800	-3.155100	-3.784600	-4.547500	-5.346300	-6.148600	-6.820000	-8.289200	-8.072800	-9.042000	-10.210500	-11.710000	-13.406100	-15.075500	-16.944300	-19.585400	-22.575600	-25.471300	-28.369600	-31.336800	-34.420500	-37.666100	-41.057900	-44.435400	-47.736800	-51.098600	-54.734100	-58.690400	-62.223700
46.571200	45.720200	44.487100	43.233800	41.978900	40.743200	39.542300	38.406500	37.362300	36.402200	35.498100	34.615900	33.727900	32.831700	31.921000	30.982000	30.027300	29.081200	28.181400	27.336600	26.522300	25.699300	24.855100	23.985600	23.137200	22.337100	21.475300	20.741600	20.201600	19.617100	18.915200	18.125000	17.319000	16.585000	15.892900	15.191800	14.390400	13.616600	12.842300	12.049200	11.244800	10.473500	9.696600	8.875700	8.072700	7.362100	6.844700	6.636300	6.721000	6.854100	6.936700	7.049100	7.262900	7.489700	7.731800	7.990600	8.302100	8.761200	9.343100	9.952500	10.573900	11.272300	12.110400	13.091600	14.187800	15.361500	16.578600	17.808000	19.029800	20.229000	21.399300	22.526400	23.599600	24.607800	25.537900	26.384400	27.146300	27.828200	28.432900	28.964200	29.424700	29.817100	30.144200	30.408400	30.611800	30.757200	30.846800	30.883100	30.866600	30.790200	30.645600	30.423900	30.117200	29.716600	29.213900	28.600900	27.868900	27.009800	26.021400	24.909900	23.683700	22.350000	20.918300	19.401900	17.809800	16.157600	14.466700	12.769800	11.092800	9.456300	7.906200	6.494500	5.279600	4.251600	3.237200	2.268200	1.524900	0.708700	-0.086300	-0.770500	-1.444600	-2.122500	-2.770800	-3.376000	-3.982100	-4.713500	-5.538800	-6.341100	-7.005000	-8.521900	-8.292900	-9.268700	-10.558600	-12.100500	-13.748900	-15.376400	-17.240200	-19.889200	-22.914900	-25.810400	-28.718700	-31.745000	-34.904700	-38.192900	-41.584800	-44.987800	-48.410300	-51.957100	-55.739300	-59.608700	-62.928100
46.897700	46.020400	44.748300	43.454800	42.158900	40.882200	39.640500	38.465200	37.383300	36.386200	35.447200	34.535800	33.622900	32.703700	31.772200	30.823400	29.882900	28.952700	28.041700	27.185100	26.364300	25.527900	24.662200	23.800400	22.958400	22.116700	21.294100	20.683000	20.180000	19.528500	18.713200	17.828200	17.006200	16.319200	15.644000	14.902500	14.084700	13.330400	12.576400	11.811500	11.019000	10.214600	9.377900	8.497700	7.672400	7.057300	6.763400	6.782600	6.945300	7.075600	7.168000	7.333900	7.552000	7.750300	7.985700	8.278100	8.603400	9.010700	9.530100	10.178200	10.973700	11.903100	12.935300	14.012000	15.100700	16.198200	17.309100	18.440700	19.602900	20.781800	21.958200	23.104800	24.197900	25.213100	26.131300	26.953500	27.683800	28.329600	28.895200	29.386200	29.807100	30.162500	30.457200	30.695400	30.881100	31.019000	31.113100	31.166600	31.174000	31.123300	31.002400	30.799100	30.501800	30.098400	29.577100	28.926300	28.134000	27.190100	26.098200	24.868700	23.514300	22.046600	20.479600	18.831600	17.115900	15.355300	13.582400	11.837100	10.150200	8.548700	7.084700	5.797600	4.684900	3.694200	2.722300	1.806400	1.030800	0.210600	-0.548300	-1.205900	-1.903900	-2.564000	-3.173400	-3.811400	-4.399400	-5.094300	-5.909200	-6.716500	-7.517800	-9.053800	-8.828400	-9.966300	-11.294000	-12.901300	-14.539400	-16.082900	-17.903300	-20.557100	-23.676400	-26.709700	-29.723700	-32.845900	-36.106900	-39.463800	-42.900900	-46.455300	-50.249200	-54.269500	-58.227700	-61.796800	-64.684600
47.260200	46.367700	45.070300	43.748700	42.421900	41.111500	39.833200	38.618100	37.493000	36.454600	35.485000	34.557800	33.640900	32.720400	31.786500	30.840500	29.917100	29.000800	28.078300	27.205000	26.373000	25.525500	24.644300	23.796200	22.965800	22.082600	21.291600	20.754300	20.217700	19.476900	18.607000	17.734400	16.940300	16.273200	15.574800	14.792500	13.989500	13.262500	12.512500	11.756600	10.966100	10.141300	9.281300	8.385500	7.552900	6.984800	6.799000	6.909300	7.064100	7.165100	7.293300	7.489700	7.684600	7.851400	8.082700	8.412900	8.740200	9.082900	9.544400	10.227700	11.157700	12.246100	13.393200	14.504300	15.552700	16.565500	17.576600	18.621600	19.732700	20.895900	22.082200	23.254400	24.378700	25.420900	26.355800	27.187500	27.920600	28.562600	29.119400	29.598100	30.004600	30.344600	30.624400	30.849300	31.025100	31.157500	31.252100	31.312400	31.329300	31.288800	31.177100	30.980600	30.686100	30.279700	29.748100	29.078100	28.256100	27.271600	26.131900	24.848700	23.436500	21.908400	20.279700	18.570300	16.794700	14.978800	13.159900	11.382500	9.683400	8.096100	6.680400	5.464800	4.402500	3.422800	2.479500	1.586900	0.750800	-0.056500	-0.769500	-1.437600	-2.142700	-2.792400	-3.382900	-4.027000	-4.614200	-5.298700	-6.090200	-6.901800	-7.813900	-9.340400	-9.123600	-10.383600	-11.670000	-13.303400	-14.961400	-16.463100	-18.251900	-20.905500	-24.078300	-27.219600	-30.310400	-33.473100	-36.769400	-40.156300	-43.630400	-47.289100	-51.301600	-55.582600	-59.593100	-62.982700	-65.662800
[END]

